Folder: EIS_Manager/data (part 3)

File: DE_65_8_60.mpt
EC-Lab ASCII FILE
Nb header lines : 60

Potentio Electrochemical Impedance Spectroscopy

Run on channel : 4 (SN 4192)
User :
CE vs. WE compliance from -10 V to 10 V
Electrode connection : standard
Ewe ctrl range : min = -10.00 V, max = 10.00 V
Acquisition started on : 02/20/2020 14:50:54
Technique started on : 02/20/2020 14:50:55
Saved on :
	File : DE_65_8_60.mpr
	Directory : P:\Chemistry\Data\VMP3\Kyler\DOE\DE_65\60C\
	Host : 10.0.4.64
Device : VMP3 (SN 1432)
Address : USB
EC-Lab for windows v11.33 (software)
Internet server v11.32 (firmware)
Command interpretor v11.33 (firmware)
Electrode material :
Initial state :
Electrolyte :
Comments :
Electrode surface area : 0.001 cm²
Characteristic mass : 0.001 g
Equivalent Weight : 0.000 g/eq.
Density : 0.000 g/cm3
Record Analogic IN 1
Cycle Definition : Charge/Discharge alternance
Mode                Single sine
E (V)               0.0000
vs.                 Eoc
tE (h:m:s)          0:00:0.0000
record              0
dI                  1.000
unit dI             mA
dt (s)              0.000
fi                  1.000
unit fi             MHz
ff                  1.000
unit ff             Hz
Nd                  20
Points              per decade
spacing             Logarithmic
Va (mV)             128.0
pw                  0.50
Na                  3
corr                0
E range min (V)     -10.000
E range max (V)     10.000
I Range             Auto
Bandwidth           5
nc cycles           0
goto Ns'            0
nr cycles           0
inc. cycle          1

freq/Hz	Re(Z)/Ohm	-Im(Z)/Ohm	|Z|/Ohm	Phase(Z)/deg	time/s	<Ewe>/V	<I>/mA	Cs/µF	Cp/µF	cycle number	I Range	|Ewe|/V	|I|/A	(Q-Qo)/mA.h	Analog IN 1/V	Re(Y)/Ohm-1	Im(Y)/Ohm-1	|Y|/Ohm-1	Phase(Y)/deg	dq/mA.h
1.00002e+06	125.864	134.64	184.309	-46.9294	1.95048	-0.307483	0.000684787	0.00118206	0.000630804	1	11	0.00520415	2.8236e-05	1.60302e-07	-0.000885539	0.00370519	0.00396353	0.00542568	46.9294	1.60302e-07
707950	165.779	146.549	221.267	-41.4767	3.73649	-0.306931	0.00155916	0.00153404	0.000672924	1	11	0.0147477	6.66511e-05	5.71935e-07	-0.000564764	0.00338607	0.00299329	0.00451943	41.4767	1.79723e-07
501206	210.372	155.35	261.515	-36.4441	5.52248	-0.306632	0.00188282	0.00204406	0.00072131	1	11	0.0319822	0.000122296	1.54925e-06	-0.000404376	0.00307607	0.00227153	0.00382387	36.4441	3.96992e-07
354810	260.083	156.391	303.482	-31.019	7.30947	-0.306488	0.00222825	0.00286822	0.000761675	1	11	0.0570618	0.000188024	2.8763e-06	-0.000324182	0.00282388	0.00169803	0.00329509	31.019	3.67894e-07
251188	304.192	145.893	337.368	-25.6227	9.09649	-0.306508	0.00227181	0.00434299	0.000812171	1	11	0.091037	0.000269845	4.25641e-06	-8.36012e-05	0.00267263	0.00128182	0.00296412	25.6227	5.67515e-07
177832	340.192	129.096	363.863	-20.7808	10.6105	-0.30651	0.00219252	0.00693263	0.000872666	1	11	0.13521	0.000371597	5.3304e-06	-0.000163795	0.0025695	0.000975074	0.00274829	20.7808	4.76417e-07
125909	366.396	110.446	382.681	-16.7749	12.3995	-0.306451	0.00229861	0.0114449	0.000953324	1	11	0.129621	0.000338718	5.72796e-06	7.67863e-05	0.00250194	0.000754186	0.00261314	16.7749	2.82039e-07
89129.3	386.129	93.6481	397.323	-13.6328	14.1875	-0.306424	0.00228111	0.0190678	0.00105928	1	11	0.129334	0.000325512	7.33306e-06	-0.000404376	0.00244593	0.000593214	0.00251684	13.6328	1.10297e-06
63093.8	400.725	79.9535	408.624	-11.2836	15.8385	-0.306415	0.00230214	0.0315497	0.00120788	1	11	0.130216	0.000318671	8.53996e-06	-0.000163795	0.00239994	0.000478841	0.00244724	11.2836	8.70949e-08
44666.7	411.474	70.0214	417.389	-9.65763	17.3535	-0.30642	0.0023001	0.0508868	0.00143214	1	11	0.136994	0.000328216	8.76374e-06	-0.000965732	0.00236189	0.000401929	0.00239585	9.65763	2.33261e-07
31621.1	419.777	64.0425	424.634	-8.67434	18.8695	-0.306411	0.00232057	0.0785912	0.00178765	1	11	0.139426	0.000328345	9.35668e-06	-0.000163795	0.00232803	0.000355172	0.00235497	8.67434	2.29481e-08
22389	427.01	62.2873	431.529	-8.29911	20.3845	-0.306399	0.00221504	0.114126	0.00237774	1	11	0.135223	0.000313358	1.00658e-05	-0.000243989	0.00229307	0.000334487	0.00231734	8.29911	4.77878e-07
15847.7	432.897	64.6056	437.691	-8.48818	21.7635	-0.306408	0.00227497	0.155448	0.0033868	1	11	0.140669	0.000321388	1.08192e-05	-0.000163795	0.00225969	0.000337237	0.00228472	8.48818	9.79877e-08
11217.7	439.952	72.142	445.828	-9.3123	23.5785	-0.306369	0.000186264	0.196665	0.00514955	1	12	0.13135	0.00029462	1.11811e-05	-0.000805345	0.00221346	0.000362956	0.00224302	9.3123	-2.27744e-07
7944	445.781	84.8163	453.778	-10.7726	25.2	-0.306318	0.000254164	0.236212	0.00825226	1	12	0.129246	0.000284821	1.10765e-05	-0.000725151	0.00216488	0.0004119	0.00220372	10.7726	-2.52968e-07
5621.06	452.116	104.586	464.055	-13.0249	27.1123	-0.306298	0.000297437	0.270724	0.0137511	1	12	0.134404	0.00028963	1.13674e-05	-0.000725151	0.00209948	0.000485665	0.00215492	13.0249	2.45036e-07
3981.27	459.169	133.368	478.145	-16.1962	29.3927	-0.306299	0.000306452	0.299742	0.02332	1	12	0.136804	0.000286115	1.1877e-05	-0.00048457	0.00200841	0.000583353	0.00209142	16.1962	-5.57359e-08
2817.3	467.668	174.382	499.121	-20.4493	31.6729	-0.306317	0.000270425	0.323956	0.0395437	1	12	0.137632	0.000275748	1.19048e-05	-0.000805345	0.00187726	0.000699986	0.00200352	20.4493	-1.40496e-07
1995.64	478.468	231.574	531.562	-25.8265	33.9527	-0.306302	0.000290617	0.344389	0.0653612	1	12	0.137612	0.000258883	1.18584e-05	-0.000725151	0.00169334	0.000819561	0.00188125	25.8265	-8.47326e-08
1411.84	493.16	311.083	583.078	-32.2435	36.2342	-0.306313	0.000306543	0.362376	0.103147	1	12	0.137149	0.000235216	1.24161e-05	-0.000243989	0.00145056	0.000915004	0.00171504	32.2435	2.37599e-07
1000.32	513.463	419.706	663.173	-39.2626	38.5117	-0.306295	0.000295515	0.379084	0.151835	1	12	0.136495	0.000205821	1.28048e-05	-0.000965732	0.0011675	0.000954316	0.0015079	39.2626	2.41613e-07
707.509	542.863	569.022	786.439	-46.3477	40.7925	-0.306292	0.000281692	0.395329	0.20696	1	12	0.135834	0.00017272	1.3145e-05	-3.40745e-06	0.000877729	0.000920023	0.00127155	46.3477	1.38792e-07
501.444	586.483	771.032	968.738	-52.7417	43.0642	-0.306297	0.000282101	0.411647	0.26077	1	12	0.135286	0.000139652	1.33946e-05	-8.36012e-05	0.000624947	0.000821599	0.00103227	52.7417	1.74122e-07
354.66	652.584	1045.28	1232.26	-58.0228	45.3439	-0.306289	0.00027545	0.429316	0.308911	1	12	0.1349	0.000109473	1.33705e-05	-0.000324182	0.000429765	0.000688376	0.000811516	58.0228	1.4633e-08
251.044	754.289	1412.28	1601.09	-61.8936	47.6129	-0.306298	0.000258703	0.4489	0.349269	1	12	0.13465	8.40993e-05	1.36777e-05	-0.000324182	0.000294244	0.000550922	0.000624576	61.8936	1.50512e-07
177.781	910.083	1898.2	2105.09	-64.3848	49.9043	-0.306291	0.000354096	0.47162	0.383472	1	12	0.134503	6.38942e-05	1.38115e-05	-0.000564764	0.000205371	0.000428351	0.000475038	64.3848	9.57869e-09
125.846	1148.17	2532.77	2780.87	-65.6139	52.4294	-0.306302	2.79785e-05	0.499329	0.414207	1	13	0.135298	4.86534e-05	1.39494e-05	-0.000243989	0.000148473	0.000327518	0.0003596	65.6139	1.56443e-08
89.116	1506.78	3344.86	3668.58	-65.7495	54.7007	-0.306299	2.97775e-05	0.533933	0.443861	1	13	0.134847	3.67572e-05	1.39871e-05	-0.000324182	0.000111958	0.000248532	0.000272585	65.7495	1.05569e-08
63.0823	2037.47	4352.73	4805.99	-64.9161	56.9968	-0.306295	2.60207e-05	0.57963	0.475454	1	13	0.134599	2.80065e-05	1.40063e-05	-0.000965732	8.82117e-05	0.00018845	0.000208074	64.9161	1.99605e-08
44.6712	2787.8	5567.24	6226.23	-63.4005	59.2612	-0.306293	3.04457e-05	0.63996	0.51166	1	13	0.134475	2.15981e-05	1.39951e-05	-0.000644957	7.19136e-05	0.000143611	0.000160611	63.4005	1.33777e-08
31.6296	3792.35	6983.07	7946.39	-61.4946	61.4974	-0.306296	2.73167e-05	0.720578	0.556459	1	13	0.134407	1.69142e-05	1.39976e-05	-0.000324182	6.00577e-05	0.000110588	0.000125843	61.4946	-1.2452e-08
22.3854	5053.01	8608.53	9981.97	-59.588	63.7454	-0.306301	2.69366e-05	0.825898	0.614259	1	13	0.134369	1.34612e-05	1.40229e-05	7.67863e-05	5.07128e-05	8.63965e-05	0.000100181	59.588	3.14089e-08
15.8576	6505.77	10453.4	12312.6	-58.1036	66.0729	-0.306308	2.73965e-05	0.960118	0.692062	1	13	0.134347	1.09114e-05	1.40044e-05	-0.000163795	4.29143e-05	6.89544e-05	8.12179e-05	58.1036	-4.98362e-08
11.2249	8110.21	12719.8	15085.4	-57.4782	68.4499	-0.306312	2.19917e-05	1.1147	0.792513	1	13	0.134335	8.90498e-06	1.4034e-05	-0.00048457	3.56384e-05	5.58943e-05	6.62893e-05	57.4782	-3.81981e-08
7.93953	9804.16	15618.2	18440.4	-57.8818	70.9927	-0.306295	2.502e-05	1.2835	0.920692	1	13	0.134336	7.28488e-06	1.40502e-05	-3.40745e-06	2.88317e-05	4.59292e-05	5.42288e-05	57.8818	-2.3475e-08
5.6205	11594.8	19490.8	22678.8	-59.2522	72.8577	-0.306314	3.43135e-05	1.45284	1.07308	1	13	0.134335	5.9234e-06	1.41348e-05	0.000477755	2.25435e-05	3.78956e-05	4.4094e-05	59.2522	3.47799e-08
3.97785	13600.5	24786.2	28272.4	-61.2459	75.6942	-0.30629	-2.14381e-06	1.61422	1.24067	1	14	0.134355	4.75216e-06	1.40879e-05	-0.00048457	1.70149e-05	3.10088e-05	3.53702e-05	61.2459	3.02041e-08
2.81836	15963.7	32060.6	35815.1	-63.5303	79.1926	-0.306288	3.33195e-06	1.76138	1.41144	1	14	0.134345	3.75109e-06	1.40908e-05	-0.00048457	1.24452e-05	2.49942e-05	2.79212e-05	63.5303	-1.0184e-07
1.99706	18914.6	41925.6	45994.8	-65.7176	84.0536	-0.306287	3.7836e-06	1.90086	1.5794	1	14	0.134341	2.92078e-06	1.40918e-05	-0.000404376	8.94088e-06	1.98181e-05	2.17416e-05	65.7176	-8.60153e-08
1.41224	22805.9	55317.3	59834.1	-67.5949	90.8611	-0.306282	4.83249e-06	2.03728	1.74131	1	14	0.134337	2.24515e-06	1.41844e-05	-3.40745e-06	6.37017e-06	1.54513e-05	1.67129e-05	67.5949	8.06327e-08
1.00006	27988.1	73167.7	78338	-69.0672	100.407	-0.306282	3.93747e-06	2.17507	1.89743	1	14	0.134332	1.71477e-06	1.42199e-05	-0.000644957	4.56066e-06	1.19227e-05	1.27652e-05	69.0672	8.35695e-08

File: DE_65_9_60.mpt
EC-Lab ASCII FILE
Nb header lines : 60

Potentio Electrochemical Impedance Spectroscopy

Run on channel : 1 (SN 20909)
User :
CE vs. WE compliance from -10 V to 10 V
Electrode connection : standard
Ewe ctrl range : min = -10.00 V, max = 10.00 V
Acquisition started on : 02/20/2020 14:48:36
Technique started on : 02/20/2020 14:48:37
Saved on :
	File : DE_65_9_60.mpr
	Directory : P:\Chemistry\Data\VMP3\Kyler\DOE\DE_65\60C\
	Host : 10.0.4.64
Device : VMP3 (SN 1432)
Address : USB
EC-Lab for windows v11.33 (software)
Internet server v11.32 (firmware)
Command interpretor v11.33 (firmware)
Electrode material :
Initial state :
Electrolyte :
Comments :
Electrode surface area : 0.001 cm²
Characteristic mass : 0.001 g
Equivalent Weight : 0.000 g/eq.
Density : 0.000 g/cm3
Record Analogic IN 1
Cycle Definition : Charge/Discharge alternance
Mode                Single sine
E (V)               0.0000
vs.                 Eoc
tE (h:m:s)          0:00:0.0000
record              0
dI                  1.000
unit dI             mA
dt (s)              0.000
fi                  1.000
unit fi             MHz
ff                  1.000
unit ff             Hz
Nd                  20
Points              per decade
spacing             Logarithmic
Va (mV)             128.0
pw                  0.50
Na                  3
corr                0
E range min (V)     -10.000
E range max (V)     10.000
I Range             Auto
Bandwidth           5
nc cycles           0
goto Ns'            0
nr cycles           0
inc. cycle          1

freq/Hz	Re(Z)/Ohm	-Im(Z)/Ohm	|Z|/Ohm	Phase(Z)/deg	time/s	<Ewe>/V	<I>/mA	Cs/µF	Cp/µF	cycle number	I Range	|Ewe|/V	|I|/A	(Q-Qo)/mA.h	Analog IN 1/V	Re(Y)/Ohm-1	Im(Y)/Ohm-1	|Y|/Ohm-1	Phase(Y)/deg	dq/mA.h
1.00002e+06	73.9988	102.628	126.524	-54.2068	1.64548	-0.319789	0.000659295	0.00155077	0.00102031	1	11	0.000735569	5.81369e-06	2.53412e-07	2.1919e-05	0.00462255	0.00641092	0.00790366	54.2068	2.53412e-07
707950	105.754	103.103	147.696	-44.2726	3.4325	-0.318387	0.000596775	0.00218045	0.00106255	1	11	0.00188412	1.27567e-05	5.44047e-07	-0.000218689	0.00484796	0.00472641	0.00677065	44.2726	1.66277e-07
501206	137.668	105.74	173.59	-37.5272	5.22148	-0.317384	0.000598457	0.00300306	0.00111428	1	11	0.0053148	3.0617e-05	4.17102e-07	2.1919e-05	0.00456861	0.00350907	0.00576071	37.5272	-9.11645e-08
354810	167.942	104.331	197.71	-31.8498	7.00849	-0.316829	0.000716971	0.00429945	0.00119723	1	11	0.0269299	0.000136209	6.31357e-07	-5.82835e-05	0.00429636	0.00266903	0.00505791	31.8498	3.66246e-07
251188	195.487	98.063	218.704	-26.6399	8.79548	-0.316695	0.000604809	0.00646125	0.00129901	1	11	0.0626087	0.000286271	2.16554e-06	-0.000459296	0.00408699	0.00205017	0.00457238	26.6399	7.15237e-07
177832	218.743	88.7415	236.059	-22.0818	10.5845	-0.316569	0.000765128	0.0100852	0.00142527	1	11	0.110469	0.000467974	4.33383e-06	-0.000459296	0.0039255	0.00159253	0.00423624	22.0818	1.08354e-06
125909	237.764	78.8502	250.497	-18.3472	12.2355	-0.316444	0.000711751	0.016031	0.00158839	1	11	0.129992	0.000518934	4.62527e-06	-0.000138486	0.00378913	0.0012566	0.00399206	18.3472	3.31217e-07
89129.3	253.229	69.2156	262.518	-15.2874	14.0245	-0.316363	0.000650909	0.0257986	0.00179344	1	11	0.129659	0.000493907	5.45534e-06	0.000262526	0.00367448	0.00100435	0.00380927	15.2874	1.0529e-06
63093.8	265.529	60.5513	272.346	-12.8461	15.6755	-0.31632	0.000669572	0.0416591	0.00205928	1	11	0.140664	0.00051649	7.17861e-06	0.000102121	0.0035799	0.000816361	0.0036718	12.8461	4.6413e-07
44666.7	275.313	53.5765	280.478	-11.0122	17.3255	-0.316286	0.000655575	0.0665062	0.00242669	1	11	0.130015	0.00046355	7.02698e-06	0.000102121	0.00349969	0.000681048	0.00356535	11.0122	2.27898e-07
31621.1	283.135	48.5213	287.262	-9.72442	18.8415	-0.316307	0.000541729	0.103731	0.0029595	1	11	0.134844	0.00046941	8.23246e-06	2.1919e-05	0.00343112	0.000587997	0.00348114	9.72442	2.82302e-07
22389	289.703	45.7511	293.294	-8.97426	20.3585	-0.316273	0.000607797	0.155376	0.00378077	1	11	0.132581	0.000452042	7.18954e-06	-0.000298891	0.00336781	0.000531858	0.00340955	8.97426	-2.88947e-07
15847.7	295.177	45.4295	298.653	-8.74951	21.7385	-0.316281	0.000581295	0.221063	0.00511517	1	11	0.138952	0.000465263	6.62457e-06	0.000102121	0.00330941	0.000509337	0.00334837	8.74951	-2.70846e-07
11217.7	300.176	47.9139	303.976	-9.06901	23.2525	-0.316268	0.000598278	0.296111	0.00735698	1	11	0.130185	0.000428275	7.74939e-06	-0.000539499	0.00324861	0.000518541	0.00328974	9.06901	4.79158e-07
7944	305.066	53.7166	309.759	-9.98638	24.721	-0.316252	0.000601451	0.372969	0.0112161	1	11	0.131763	0.000425373	8.30553e-06	-0.000539499	0.0031794	0.000559835	0.00322831	9.98638	2.10337e-07
5621.06	310.13	63.4825	316.561	-11.5684	26.6323	-0.316223	0.000505895	0.446014	0.0179367	1	11	0.132522	0.000418629	8.00765e-06	0.000342729	0.00309478	0.000633489	0.00315895	11.5684	-2.5256e-07
3981.27	315.807	78.0907	325.318	-13.8891	28.9127	-0.316244	0.000419111	0.511916	0.0294972	1	11	0.132874	0.000408443	8.15758e-06	-0.000379094	0.00298404	0.000737874	0.00307391	13.8891	4.1127e-07
2817.3	322.636	99.0277	337.492	-17.063	31.1929	-0.316224	0.000518585	0.570468	0.0491155	1	11	0.133013	0.000394121	8.90301e-06	0.000583336	0.00283261	0.000869422	0.00296304	17.063	4.27134e-07
1995.64	331.421	127.839	355.222	-21.0931	33.7237	-0.316219	0.00087965	0.623842	0.0807981	1	12	0.136381	0.000383931	9.15253e-06	0.000342729	0.00262652	0.00101312	0.00281514	21.0931	1.94523e-07
1411.84	342.899	167.38	381.57	-26.0185	36.0052	-0.316229	0.000865951	0.673491	0.129596	1	12	0.136076	0.000356622	9.14496e-06	0.000102121	0.00235514	0.00114962	0.00262075	26.0185	7.98451e-08
1000.32	358.458	220.363	420.776	-31.5812	38.2827	-0.316226	0.000878473	0.72201	0.198024	1	12	0.13545	0.000321905	9.42153e-06	0.000342729	0.00202459	0.00124462	0.00237656	31.5812	3.17836e-08
707.509	379.622	291.162	478.423	-37.4875	40.5634	-0.316226	0.0008454	0.772596	0.286154	1	12	0.134741	0.000281636	9.73128e-06	-0.000860309	0.00165855	0.00127207	0.0020902	37.4875	-8.96755e-08
501.444	407.936	383.928	560.189	-43.2634	42.8352	-0.316226	0.000867047	0.826701	0.388309	1	12	0.134109	0.0002394	9.90788e-06	2.1919e-05	0.00129994	0.00122343	0.00178511	43.2634	1.09196e-07
354.66	445.424	506.571	674.55	-48.6751	45.1129	-0.316225	0.000802134	0.885866	0.499599	1	12	0.133605	0.000198065	1.04333e-05	-0.000379094	0.000978917	0.0011133	0.00148247	48.6751	2.70124e-07
251.044	493.376	667.81	830.295	-53.5431	47.3819	-0.316228	0.000841813	0.949329	0.614126	1	12	0.133255	0.000160491	1.07082e-05	-0.000379094	0.00071567	0.000968697	0.00120439	53.5431	2.57237e-09
177.781	552.977	880.995	1040.16	-57.8846	49.6742	-0.316224	0.000897448	1.01616	0.728964	1	12	0.133025	0.000127888	1.11014e-05	-0.000138486	0.0005111	0.000814277	0.000961389	57.8846	2.43853e-07
125.846	627.508	1166.65	1324.7	-61.7255	51.9494	-0.316225	0.000850732	1.08403	0.840785	1	12	0.132884	0.000100312	1.16179e-05	-0.000138486	0.000357587	0.000664818	0.000754885	61.7255	1.00481e-07
89.116	721.245	1550.37	1709.93	-65.0518	54.2217	-0.316222	0.000847633	1.15194	0.94699	1	12	0.132803	7.76658e-05	1.20703e-05	-0.000539499	0.000246676	0.00053025	0.00058482	65.0518	2.25493e-07
63.0823	840.438	2070.08	2234.18	-67.9032	56.5179	-0.316223	0.000823127	1.21878	1.04632	1	12	0.132752	5.94185e-05	1.25807e-05	-5.82835e-05	0.000168371	0.000414715	0.000447591	67.9032	1.73582e-07
44.6712	994.472	2772.12	2945.1	-70.2651	59.0352	-0.316226	0.000889732	1.28523	1.13868	1	13	0.133025	4.51681e-05	1.31322e-05	0.000422931	0.000114654	0.000319603	0.000339546	70.2651	1.21549e-07
31.6296	1196.85	3724.18	3911.77	-72.1839	61.2724	-0.316223	0.000895425	1.35113	1.22465	1	13	0.13287	3.39668e-05	1.36457e-05	0.000262526	7.82159e-05	0.000243379	0.000255639	72.1839	1.65125e-07
22.3854	1466.75	5015.37	5225.44	-73.6984	63.5205	-0.316221	0.00089722	1.4176	1.30591	1	13	0.132786	2.54114e-05	1.42384e-05	-0.000138486	5.37168e-05	0.000183678	0.000191371	73.6984	1.05807e-07
15.8576	1827.46	6761.66	7004.26	-74.8761	65.849	-0.316217	0.000904167	1.48433	1.38329	1	13	0.132742	1.89516e-05	1.48371e-05	0.000102121	3.72497e-05	0.000137825	0.00014277	74.8761	1.75039e-07
11.2249	2317.73	9128.59	9418.23	-75.7538	68.2259	-0.316224	0.000902444	1.55323	1.45917	1	13	0.132715	1.40913e-05	1.53664e-05	2.1919e-05	2.6129e-05	0.000102912	0.000106177	75.7538	9.87033e-08
7.93953	2991.81	12343.4	12700.8	-76.3753	70.7697	-0.316225	0.00088991	1.62402	1.5339	1	13	0.132701	1.04483e-05	1.61061e-05	-0.000298891	1.8547e-05	7.65196e-05	7.87353e-05	76.3753	3.20689e-07
5.6205	3937.63	16709	17166.7	-76.7397	72.6347	-0.316231	0.000864193	1.6947	1.60554	1	13	0.132699	7.72999e-06	1.65401e-05	0.000262526	1.33616e-05	5.66991e-05	5.82522e-05	76.7397	1.32477e-07
3.97785	5238.08	22551.9	23152.3	-76.9239	75.1702	-0.316229	0.000908114	1.77414	1.68333	1	13	0.132696	5.73145e-06	1.71842e-05	0.000503134	9.77204e-06	4.20724e-05	4.31923e-05	76.9239	3.30023e-07
2.81836	7054.42	30422	31229.2	-76.9447	78.6696	-0.316215	0.000887192	1.85625	1.76153	1	13	0.132692	4.24898e-06	1.80382e-05	-0.000218689	7.23336e-06	3.11937e-05	3.20213e-05	76.9447	4.21088e-07
1.99706	9609.75	40969.6	42081.5	-76.7994	83.9787	-0.31621	0.000885498	1.94521	1.84377	1	14	0.132702	3.15346e-06	1.93124e-05	-5.82835e-05	5.42662e-06	2.31355e-05	2.37634e-05	76.7994	5.54761e-07
1.41224	13125.6	55129.5	56670.5	-76.608	90.7852	-0.316212	0.000887303	2.04422	1.93456	1	14	0.132698	2.34156e-06	2.09924e-05	0.000182324	4.08699e-06	1.7166e-05	1.76459e-05	76.608	7.05152e-07
1.00006	18169.2	73849.5	76051.7	-76.178	100.331	-0.316212	0.000888849	2.15499	2.03199	1	14	0.132694	1.74479e-06	2.32236e-05	2.1919e-05	3.14136e-06	1.27682e-05	1.3149e-05	76.178	7.28111e-07