Folder: EIS_Manager/data (part 6)

File: DE_104_1_30_trimmed.mpt
EC-Lab ASCII FILE
Nb header lines : 59

Potentio Electrochemical Impedance Spectroscopy

Run on channel : 1 (SN 20909)
User :
CE vs. WE compliance from -10 V to 10 V
Electrode connection : standard
Ewe ctrl range : min = -10.00 V, max = 10.00 V
Acquisition started on : 05/08/2020 13:14:57
Saved on :
	File : DE_104_1_30.mpr
	Directory : P:\Chemistry\Data\VMP3\Kyler\DOE\DE_104\
	Host : 10.0.4.64
Device : VMP3 (SN 1432)
Address : USB
EC-Lab for windows v11.33 (software)
Internet server v11.32 (firmware)
Command interpretor v11.33 (firmware)
Electrode material :
Initial state :
Electrolyte :
Comments :
Electrode surface area : 0.001 cm²
Characteristic mass : 0.001 g
Equivalent Weight : 0.000 g/eq.
Density : 0.000 g/cm3
Record Analogic IN 1
Cycle Definition : Charge/Discharge alternance
Mode                Single sine
E (V)               0.0000
vs.                 Eoc
tE (h:m:s)          0:00:0.0000
record              0
dI                  1.000
unit dI             mA
dt (s)              0.000
fi                  1.000
unit fi             MHz
ff                  1.000
unit ff             Hz
Nd                  20
Points              per decade
spacing             Logarithmic
Va (mV)             128.0
pw                  0.50
Na                  3
corr                0
E range min (V)     -10.000
E range max (V)     10.000
I Range             Auto
Bandwidth           5
nc cycles           0
goto Ns'            0
nr cycles           0
inc. cycle          1

freq/Hz	Re(Z)/Ohm	-Im(Z)/Ohm	|Z|/Ohm	Phase(Z)/deg	time/s	<Ewe>/V	<I>/mA	Cs/µF	Cp/µF	cycle_number	I Range	|Ewe|/V	|I|/A	(Q-Qo)/mA.h	Analog IN 1/V	Re(Y)/Ohm-1	Im(Y)/Ohm-1	|Y|/Ohm-1	Phase(Y)/deg	dq/mA.h
1.00002e+06	380.531	431.645	575.431	-48.6011	1.60749	-0.0706656	-3.07479e-05	0.000368711	0.000207468	1	12	0.000913735	1.58791e-06	-2.27196e-08	-5.82835e-05	0.00114922	0.00130359	0.00173783	48.6011	-2.27196e-08
794333	428.45	494.398	654.216	-49.0875	2.80048	-0.0696794	-1.91016e-05	0.000405267	0.000231447	1	12	0.00198339	3.0317e-06	-3.7983e-08	-0.000298891	0.00100106	0.00115514	0.00152855	49.0875	-1.67339e-08
630957	489.624	583.781	761.927	-50.013	3.99048	-0.068865	-2.97398e-05	0.000432086	0.000253655	1	12	0.000749406	9.83567e-07	-6.85311e-08	0.000342729	0.000843406	0.0010056	0.00131246	50.013	8.93669e-09
501206	555.802	701.72	895.169	-51.6188	5.18249	-0.0682288	-1.49765e-05	0.000452522	0.000278072	1	12	0.00488216	5.4539e-06	-3.6622e-08	2.1919e-05	0.000693602	0.000875698	0.00111711	51.6188	4.52207e-09
398103	640.895	833.978	1051.79	-52.4585	6.37349	-0.0678087	-3.21657e-05	0.000479368	0.000301383	1	12	0.0158447	1.50645e-05	7.07225e-08	2.1919e-05	0.000579332	0.000753867	0.000950758	52.4585	5.49811e-08
316230	746.749	985.773	1236.68	-52.8551	7.56448	-0.0676323	-2.32441e-05	0.000510552	0.000324398	1	12	0.0326125	2.6371e-05	3.15525e-08	-0.000379094	0.000488269	0.000644556	0.000808616	52.8551	1.6903e-08
251188	882.682	1148.67	1448.64	-52.4599	8.75449	-0.0675188	-3.75888e-06	0.000551604	0.000346812	1	12	0.0558831	3.85762e-05	-6.97964e-08	-5.82835e-05	0.000420612	0.000547359	0.000690302	52.4599	-1.09828e-07
199544	1049.65	1319.82	1686.33	-51.5048	9.94648	-0.0674863	-4.88135e-05	0.000604321	0.000370181	1	12	0.0862519	5.11478e-05	3.53074e-08	-0.000138486	0.000369115	0.000464121	0.000593005	51.5048	8.30104e-08
158486	1252.97	1496.79	1952	-50.0671	11.0015	-0.0673747	-8.13656e-08	0.000670916	0.000394483	1	12	0.124615	6.38396e-05	-1.34644e-07	0.000503134	0.000328837	0.000392826	0.000512294	50.0671	-4.47346e-08
125909	1490.61	1673.77	2241.3	-48.3128	12.1935	-0.0673165	-1.57411e-05	0.000755208	0.000421172	1	12	0.130382	5.81724e-05	-3.30429e-07	2.1919e-05	0.000296732	0.000333194	0.00044617	48.3128	-1.18134e-07
100004	1766.12	1848.11	2556.3	-46.2996	13.3845	-0.0672487	-4.78617e-05	0.000861146	0.000450098	1	12	0.130093	5.08909e-05	-3.55955e-07	-0.000218689	0.000270269	0.000282816	0.00039119	46.2996	-7.92622e-08
79433.3	2075.5	2009.86	2889.16	-44.0795	14.5775	-0.0671809	-2.43825e-05	0.000996902	0.000482437	1	12	0.129654	4.4876e-05	-4.56116e-07	-0.000379094	0.000248645	0.000240782	0.000346122	44.0795	-3.22334e-09
63093.8	2420.81	2155.92	3241.65	-41.6876	15.7695	-0.0671797	-5.45435e-05	0.00117004	0.000517527	1	12	0.129391	3.99152e-05	-4.32396e-07	2.1919e-05	0.000230371	0.000205163	0.000308484	41.6876	-2.00998e-08
50122.5	2792.41	2279.84	3604.89	-39.2296	16.8245	-0.0671607	-2.21244e-05	0.00139278	0.000557068	1	12	0.130093	3.60878e-05	-4.99095e-07	0.000342729	0.000214879	0.000175437	0.000277401	39.2296	-3.28158e-08
39814.1	3184.45	2379.09	3975.02	-36.7633	17.8785	-0.0671396	-1.69734e-05	0.00168024	0.000601889	1	12	0.129707	3.26304e-05	-5.21829e-07	-0.000138486	0.000201537	0.000150568	0.000251571	36.7633	-5.67461e-09
31621.1	3593.65	2449.97	4349.33	-34.2843	18.7975	-0.0671616	-3.85676e-05	0.00205438	0.000651867	1	12	0.139179	3.2e-05	-4.89757e-07	0.000422931	0.000189972	0.000129514	0.00022992	34.2843	2.39479e-08
25116.9	3999.99	2490.61	4712.01	-31.9086	20.1545	-0.0671766	-9.70605e-06	0.00254418	0.000710798	1	13	0.124578	2.64383e-05	-4.81545e-07	0.000503134	0.000180155	0.000112174	0.000212224	31.9086	1.54982e-08
19948.8	4411.88	2505.87	5073.86	-29.5958	21.2105	-0.0671744	-9.81251e-06	0.0031838	0.000776579	1	13	0.129832	2.55885e-05	-5.61323e-07	0.000102121	0.000171375	9.73379e-05	0.000197089	29.5958	-5.1308e-08
15847.7	4810.45	2497.29	5420.04	-27.4356	22.2665	-0.0671703	-4.50064e-06	0.00402148	0.000853724	1	13	0.129778	2.3944e-05	-5.36804e-07	2.1919e-05	0.00016375	8.50087e-05	0.0001845	27.4356	1.51888e-08
12590.9	5188.66	2474.72	5748.6	-25.4987	23.1855	-0.0671609	-5.54214e-06	0.00510782	0.000946595	1	13	0.139419	2.42527e-05	-5.47072e-07	-0.000138486	0.000157011	7.48862e-05	0.000173955	25.4987	-2.36755e-08
10002.2	5541.93	2446.56	6057.94	-23.8197	24.2395	-0.0671545	-7.62514e-06	0.00650379	0.00106079	1	13	0.131688	2.1738e-05	-5.76772e-07	-5.82835e-05	0.000151012	6.66663e-05	0.000165073	23.8197	2.06359e-08
7944	5869.32	2424.09	6350.21	-22.4412	25.248	-0.067137	-5.74376e-06	0.00826479	0.00120435	1	13	0.134448	2.11722e-05	-5.65453e-07	0.000182324	0.00014555	6.01137e-05	0.000157475	22.4412	1.5859e-08
6307.73	6172.05	2419.8	6629.45	-21.408	26.4596	-0.0671064	-3.68506e-06	0.0104272	0.00138922	1	13	0.135728	2.04735e-05	-5.78192e-07	0.000262526	0.000140435	5.50584e-05	0.000150842	21.408	-1.72616e-08
5011.6	6451.77	2445.15	6899.57	-20.7562	27.9207	-0.0670954	-5.28087e-06	0.0129879	0.00163119	1	13	0.136182	1.97377e-05	-5.65712e-07	-0.000138486	0.00013553	5.13643e-05	0.000144936	20.7562	2.99482e-09
3981.27	6713.46	2506.42	7166.08	-20.4727	29.4407	-0.0670921	-2.24416e-06	0.0159494	0.00195114	1	13	0.136259	1.90145e-05	-5.88466e-07	0.000102121	0.000130732	4.88079e-05	0.000139546	20.4727	-1.3307e-08
3161.01	6965.36	2616.53	7440.59	-20.5886	30.9607	-0.0670915	-6.72625e-07	0.0192428	0.0023796	1	13	0.136133	1.8296e-05	-6.17563e-07	-0.000138486	0.000125814	4.72618e-05	0.000134398	20.5886	-1.44854e-08
2510.8	7212.88	2786.71	7732.49	-21.1241	32.4807	-0.0670959	-1.29231e-06	0.0227466	0.00295434	1	13	0.13592	1.75777e-05	-6.11659e-07	0.000102121	0.000120634	4.66072e-05	0.000129324	21.1241	1.26171e-08
1995.64	7464.48	3022.69	8053.27	-22.0451	34.0007	-0.067093	-8.96618e-07	0.0263842	0.00371695	1	13	0.135684	1.68482e-05	-6.07423e-07	0.000102121	0.000115095	4.66068e-05	0.000124173	22.0451	-8.92619e-09
1585.51	7732	3333.9	8420.14	-23.3248	35.5207	-0.067094	-2.03519e-06	0.0301092	0.00472026	1	13	0.135452	1.60867e-05	-5.97338e-07	2.1919e-05	0.000109057	4.70234e-05	0.000118763	23.3248	1.33896e-08
1258.79	8020.92	3731.49	8846.42	-24.9488	37.0419	-0.0670949	-4.82556e-06	0.0338832	0.00602855	1	13	0.135228	1.52861e-05	-5.87349e-07	0.000102121	0.000102492	4.76812e-05	0.00011304	24.9488	1.1917e-08
1000.32	8335.29	4231.91	9348.05	-26.9173	38.5597	-0.0670924	-2.98523e-06	0.0375963	0.00770504	1	13	0.13502	1.44436e-05	-5.99695e-07	0.000342729	9.53846e-05	4.84277e-05	0.000106974	26.9173	-1.33834e-09
794.238	8690.73	4848.55	9951.74	-29.1571	40.0779	-0.0670964	-4.28233e-07	0.0413293	0.00981033	1	13	0.134839	1.35493e-05	-6.06006e-07	0.000422931	8.77522e-05	4.89569e-05	0.000100485	29.1571	-4.21634e-09
631.01	9090.19	5597.31	10675.3	-31.6228	41.5975	-0.0671003	-4.43372e-06	0.0450614	0.0123881	1	13	0.134672	1.26153e-05	-5.94885e-07	-5.82835e-05	7.97655e-05	4.91158e-05	9.36745e-05	31.6228	6.62407e-09
501.444	9545.36	6499.76	11548.2	-34.2523	43.1112	-0.0670928	9.24092e-08	0.0488315	0.0154692	1	13	0.134538	1.16501e-05	-5.9175e-07	0.000262526	7.15754e-05	4.87382e-05	8.65936e-05	34.2523	8.37107e-09
398.089	10076.6	7592.09	12616.5	-36.9959	44.6307	-0.0670906	-7.15773e-07	0.0526597	0.0190687	1	13	0.134414	1.06538e-05	-6.06776e-07	2.1919e-05	6.33042e-05	4.7696e-05	7.92611e-05	36.9959	-4.75166e-09
316.316	10691.3	8900.92	13911.5	-39.7787	46.1479	-0.0670971	-2.56659e-07	0.0565281	0.0231411	1	13	0.134314	9.65485e-06	-6.07754e-07	0.000102121	5.52435e-05	4.59924e-05	7.18829e-05	39.7787	8.94602e-10
251.044	11410.6	10479.1	15492.4	-42.5634	47.6599	-0.0670896	-1.36907e-06	0.0604986	0.0276796	1	13	0.134231	8.66436e-06	-5.96132e-07	0.000182324	4.75415e-05	4.36606e-05	6.4548e-05	42.5634	9.18834e-09
199.553	12249	12345.9	17391.3	-45.2257	49.1842	-0.0670986	-3.74698e-06	0.0646012	0.0325551	1	13	0.134167	7.71461e-06	-5.89752e-07	-5.82835e-05	4.04981e-05	4.08185e-05	5.75e-05	45.2257	-1.16424e-09
158.428	13253.5	14597.1	19716.2	-47.7618	50.7187	-0.0670993	7.04526e-07	0.0688211	0.0377228	1	13	0.134115	6.80226e-06	-5.92218e-07	2.1919e-05	3.40944e-05	3.75506e-05	5.07196e-05	47.7618	3.56993e-09
125.846	14437.8	17276.9	22515.3	-50.1155	52.2274	-0.0670983	-1.4345e-06	0.0732009	0.0431013	1	13	0.134081	5.95509e-06	-5.9342e-07	-0.000379094	2.84803e-05	3.40807e-05	4.44142e-05	50.1155	4.84082e-09
100.032	15863.9	20465.3	25893.8	-52.2186	53.7327	-0.0670965	-3.20206e-06	0.0777433	0.0485631	1	13	0.134046	5.17674e-06	-5.87622e-07	-0.000138486	2.36601e-05	3.05229e-05	3.86192e-05	52.2186	-4.00072e-10
79.4155	17601.5	24271.5	29982	-54.0507	55.5173	-0.0670914	-1.06153e-06	0.0825691	0.0541117	1	14	0.134473	4.48512e-06	-5.89661e-07	0.000182324	1.95807e-05	2.70008e-05	3.33534e-05	54.0507	-3.84295e-09
70.8387	18598.9	26410.1	32301.9	-54.8455	56.2684	-0.0670912	-7.69045e-07	0.0850705	0.0568674	1	14	0.134395	4.16061e-06	-5.875e-07	0.000583336	1.78251e-05	2.53113e-05	3.09579e-05	54.8455	2.16143e-09

File: DE_104_10_30.mpt
EC-Lab ASCII FILE
Nb header lines : 59

Potentio Electrochemical Impedance Spectroscopy

Run on channel : 10 (SN 41749)
User :
CE vs. WE compliance from -10 V to 10 V
Electrode connection : standard
Ewe ctrl range : min = -10.00 V, max = 10.00 V
Acquisition started on : 05/08/2020 13:14:02
Saved on :
	File : DE_104_10_30.mpr
	Directory : P:\Chemistry\Data\VMP3\Kyler\DOE\DE_104\
	Host : 10.0.4.64
Device : VMP3 (SN 1432)
Address : USB
EC-Lab for windows v11.33 (software)
Internet server v11.32 (firmware)
Command interpretor v11.33 (firmware)
Electrode material :
Initial state :
Electrolyte :
Comments :
Electrode surface area : 0.001 cm²
Characteristic mass : 0.001 g
Equivalent Weight : 0.000 g/eq.
Density : 0.000 g/cm3
Record Analogic IN 1
Cycle Definition : Charge/Discharge alternance
Mode                Single sine
E (V)               0.0000
vs.                 Eoc
tE (h:m:s)          0:00:0.0000
record              0
dI                  1.000
unit dI             mA
dt (s)              0.000
fi                  1.000
unit fi             MHz
ff                  1.000
unit ff             Hz
Nd                  20
Points              per decade
spacing             Logarithmic
Va (mV)             128.0
pw                  0.50
Na                  3
corr                0
E range min (V)     -10.000
E range max (V)     10.000
I Range             Auto
Bandwidth           5
nc cycles           0
goto Ns'            0
nr cycles           0
inc. cycle          1

freq/Hz	Re(Z)/Ohm	-Im(Z)/Ohm	|Z|/Ohm	Phase(Z)/deg	time/s	<Ewe>/V	<I>/mA	Cs/µF	Cp/µF	cycle number	I Range	|Ewe|/V	|I|/A	(Q-Qo)/mA.h	Analog IN 1/V	Re(Y)/Ohm-1	Im(Y)/Ohm-1	|Y|/Ohm-1	Phase(Y)/deg	dq/mA.h
794333	390.278	523.673	653.108	-53.3039	4.10148	-0.00178358	1.14114e-05	0.000382611	0.000245984	1	12	0.00112192	1.71781e-06	-3.7547e-06	0.000585472	0.000914964	0.00122769	0.00153114	53.3039	-2.00473e-06
630957	449.915	618.399	764.749	-53.9623	5.29248	-0.00206656	7.44205e-06	0.000407898	0.000266718	1	12	0.00547678	7.16155e-06	-3.71808e-06	0.00074581	0.000769295	0.00105738	0.00130762	53.9623	9.76323e-09
501206	518.721	741.287	904.753	-55.0173	6.48548	-0.00217375	5.80223e-06	0.000428368	0.000287561	1	12	0.0131629	1.45486e-05	-3.69139e-06	0.000585472	0.000633685	0.000905578	0.00110527	55.0173	1.04164e-08
398103	601.247	887.57	1072.04	-55.886	7.67748	-0.00220204	5.22473e-06	0.000450424	0.000308746	1	12	0.0247994	2.31328e-05	-3.66158e-06	0.000425134	0.000523152	0.000772285	0.000932798	55.886	3.34223e-08
316230	704.19	1051.93	1265.87	-56.2006	8.8685	-0.00224253	2.37677e-05	0.000478444	0.000330387	1	12	0.0411559	3.25119e-05	-3.6344e-06	0.000585472	0.000439449	0.000656455	0.000789968	56.2006	3.83556e-08
251188	840.702	1239.03	1497.32	-55.8425	10.0595	-0.00233296	2.48564e-06	0.000511375	0.000350165	1	12	0.0632382	4.22342e-05	-3.75313e-06	0.00074581	0.000374982	0.000552651	0.000667858	55.8425	-7.38207e-08
199544	1017.87	1441.54	1764.68	-54.7742	11.2515	-0.00237542	6.47384e-06	0.000553294	0.000369214	1	12	0.091954	5.21081e-05	-3.82186e-06	0.000505303	0.000326858	0.000462908	0.000566675	54.7742	2.79874e-08
158486	1236.81	1651.89	2063.6	-53.177	12.3055	-0.00235862	3.51098e-06	0.000607921	0.000389547	1	12	0.128109	6.20805e-05	-3.78949e-06	0.000665641	0.000290437	0.00038791	0.00048459	53.177	-4.0166e-08
125909	1501.06	1863.1	2392.55	-51.1423	13.4985	-0.0023897	-5.34133e-06	0.000678464	0.00041141	1	12	0.13001	5.43395e-05	-3.72518e-06	0.000585472	0.000262225	0.000325471	0.000417964	51.1423	6.17717e-08
100004	1809.6	2070.38	2749.75	-48.8452	14.6895	-0.00237855	-1.33735e-05	0.000768693	0.000435781	1	12	0.129855	4.72242e-05	-3.80222e-06	0.000825979	0.000239329	0.000273819	0.000363669	48.8452	-6.63055e-09
79433.3	2166.09	2262.91	3132.52	-46.2523	15.8815	-0.00230143	1.06295e-05	0.000885424	0.000462059	1	12	0.129646	4.13871e-05	-3.89933e-06	-5.58797e-05	0.000220744	0.000230611	0.000319232	46.2523	-3.48998e-08
63093.8	2562.99	2434.47	3534.9	-43.5268	16.9365	-0.0023427	-2.84436e-06	0.00103617	0.000491453	1	12	0.140729	3.98113e-05	-3.81297e-06	0.000264796	0.000205112	0.000194827	0.000282893	43.5268	1.87652e-08
50122.5	2992.45	2575.04	3947.86	-40.7124	17.9915	-0.00233376	2.2431e-06	0.00123312	0.000524624	1	12	0.138964	3.52e-05	-3.89794e-06	0.000585472	0.000192001	0.000165219	0.000253302	40.7124	-2.01764e-08
39814.1	3447.14	2679.63	4366.14	-37.8596	19.0475	-0.00232425	6.93901e-06	0.0014918	0.000561904	1	12	0.135832	3.11104e-05	-3.88397e-06	0.000425134	0.000180827	0.000140565	0.000229035	37.8596	3.08386e-08
31621.1	4034.67	2656.08	4830.46	-33.3574	20.4045	-0.0023058	-8.63132e-06	0.00189497	0.000572936	1	13	0.123778	2.56244e-05	-3.89769e-06	0.000585472	0.000172915	0.000113832	0.00020702	33.3574	1.14246e-08
25116.9	4486.58	2685.24	5228.76	-30.9007	21.4595	-0.00228561	-1.02158e-05	0.00235978	0.000622357	1	13	0.130277	2.49156e-05	-3.89815e-06	0.000425134	0.000164104	9.82168e-05	0.00019125	30.9007	-1.58945e-08
19948.8	4932.2	2684.1	5615.25	-28.555	22.5145	-0.00228702	-8.20832e-06	0.00297239	0.000679148	1	13	0.138359	2.46399e-05	-3.86171e-06	0.00074581	0.000156424	8.51257e-05	0.000178087	28.555	8.91843e-09
15847.7	5361.58	2656.04	5983.4	-26.3531	23.5705	-0.00228714	-1.04097e-05	0.00378111	0.000745062	1	13	0.135878	2.27091e-05	-3.8755e-06	0.000425134	0.00014976	7.41887e-05	0.000167129	26.3531	1.2947e-08
12590.9	5768.51	2611.5	6332.11	-24.357	24.6255	-0.00228255	-1.02569e-05	0.0048403	0.000823295	1	13	0.129618	2.047e-05	-3.89673e-06	0.000825979	0.000143869	6.51318e-05	0.000157925	24.357	-3.66736e-09
10002.2	6145.28	2557.77	6656.33	-22.5979	25.5455	-0.00227666	-7.87469e-06	0.00622102	0.000918577	1	13	0.134058	2.01399e-05	-3.87837e-06	0.000505303	0.000138699	5.77288e-05	0.000150233	22.5979	4.80903e-09
7944	6492.62	2507.31	6959.94	-21.1155	26.554	-0.00226124	-1.49561e-05	0.00799048	0.001037	1	13	0.136357	1.95916e-05	-3.87299e-06	0.000264796	0.000134032	5.17604e-05	0.000143679	21.1155	1.8431e-08
6307.73	6808.13	2471.06	7242.71	-19.9487	27.7655	-0.00230136	-4.68164e-06	0.0102109	0.00118858	1	13	0.137397	1.89704e-05	-3.88138e-06	0.000585472	0.000129785	4.71066e-05	0.00013807	19.9487	1.52611e-09
5011.6	7096.05	2463.74	7511.59	-19.147	29.2267	-0.00221606	3.38584e-06	0.0128899	0.00138668	1	13	0.137784	1.83428e-05	-3.85399e-06	0.000585472	0.000125763	4.36649e-05	0.000133128	19.147	1.56339e-08
3981.27	7361.77	2494.25	7772.84	-18.717	30.7457	-0.00221887	1.04463e-06	0.0160272	0.00165036	1	13	0.137833	1.77327e-05	-3.83558e-06	0.000825979	0.000121849	4.1284e-05	0.000128653	18.717	3.73742e-09
3161.01	7613.84	2572.63	8036.73	-18.6695	32.2647	-0.00223185	1.65227e-06	0.0195711	0.00200546	1	13	0.137741	1.71389e-05	-3.82383e-06	0.000425134	0.000117881	3.98308e-05	0.000124429	18.6695	1.27601e-08
2510.8	7858.76	2706.21	8311.66	-19.0015	33.7837	-0.00221488	2.49293e-06	0.0234232	0.0024831	1	13	0.137581	1.65527e-05	-3.80411e-06	0.000425134	0.000113757	3.91729e-05	0.000120313	19.0015	5.57615e-09
1995.64	8103.37	2905.91	8608.65	-19.7281	35.3037	-0.00220655	1.27195e-06	0.0274446	0.00312716	1	13	0.137393	1.59598e-05	-3.80255e-06	0.000344965	0.000109344	3.92113e-05	0.000116162	19.7281	1.30586e-08
1585.51	8361.99	3180.03	8946.25	-20.8216	36.8227	-0.00220776	1.67273e-06	0.0315661	0.00398842	1	13	0.137213	1.53375e-05	-3.79757e-06	0.000505303	0.000104479	3.97328e-05	0.000111779	20.8216	1.13553e-08
1258.79	8637	3534.48	9332.22	-22.2556	38.342	-0.00220886	7.85454e-07	0.0357719	0.00513123	1	13	0.137036	1.46842e-05	-3.777e-06	0.00130699	9.91729e-05	4.0584e-05	0.000107156	22.2556	1.40129e-08
1000.32	8935.36	3984.35	9783.44	-24.0325	39.8597	-0.00221078	1.02588e-06	0.0399322	0.00662301	1	13	0.136873	1.39903e-05	-3.78258e-06	0.000264796	9.33531e-05	4.16269e-05	0.000102214	24.0325	4.58388e-09
794.238	9269.55	4540.38	10321.8	-26.0964	41.377	-0.00221453	-1.57072e-06	0.0441344	0.00853986	1	13	0.136731	1.32468e-05	-3.78171e-06	0.000986317	8.70057e-05	4.26168e-05	9.68823e-05	26.0964	-8.98543e-09
631.01	9640.52	5221.88	10963.9	-28.4426	42.8974	-0.00222158	-1.79077e-06	0.0483011	0.0109567	1	13	0.136598	1.24588e-05	-3.76005e-06	0.000344965	8.01989e-05	4.34405e-05	9.12082e-05	28.4426	9.58728e-09
501.444	10062.2	6046.32	11739.1	-31.0014	44.4112	-0.00222913	1.31655e-06	0.0524936	0.0139258	1	13	0.136481	1.16262e-05	-3.75048e-06	0.000344965	7.30172e-05	4.38757e-05	8.51856e-05	31.0014	5.73155e-09
398.089	10541.7	7054.28	12684.3	-33.7896	45.9307	-0.00221997	2.52443e-06	0.0566744	0.0175292	1	13	0.136385	1.07523e-05	-3.75933e-06	0.00074581	6.5521e-05	4.38453e-05	7.88379e-05	33.7896	-6.44665e-09
316.316	11096.4	8256.41	13831.1	-36.6515	47.4479	-0.00222309	-2.6974e-07	0.0609408	0.021716	1	13	0.136297	9.85442e-06	-3.76151e-06	0.000344965	5.80057e-05	4.31599e-05	7.23011e-05	36.6515	-5.56353e-09
251.044	11739.1	9720.96	15241.5	-39.6277	48.9599	-0.00221695	3.50953e-07	0.0652169	0.0265292	1	13	0.136222	8.93756e-06	-3.74771e-06	0.00074581	5.05335e-05	4.18461e-05	6.56104e-05	39.6277	5.94133e-09
199.553	12481.9	11462.5	16946.6	-42.5623	50.4822	-0.00221971	1.08535e-06	0.0695795	0.031833	1	13	0.136169	8.03519e-06	-3.75165e-06	0.000505303	4.34626e-05	3.99132e-05	5.9009e-05	42.5623	-7.51485e-09
158.428	13365.9	13572.4	19048.8	-45.4391	52.0157	-0.00220888	-2.62965e-06	0.074017	0.0375757	1	13	0.136115	7.14557e-06	-3.74988e-06	0.00074581	3.68352e-05	3.74042e-05	5.24967e-05	45.4391	-4.87359e-09
125.846	14408.4	16102.9	21607.9	-48.1787	53.5234	-0.00221762	2.48703e-06	0.0785378	0.0436172	1	13	0.136076	6.29751e-06	-3.74776e-06	0.000505303	3.08595e-05	3.44886e-05	4.62793e-05	48.1787	3.20943e-09
100.032	15669.7	19118.3	24719.4	-50.6613	55.0287	-0.00222122	3.49172e-06	0.0832208	0.0497799	1	13	0.13605	5.50375e-06	-3.7399e-06	0.00106649	2.5644e-05	3.12877e-05	4.0454e-05	50.6613	3.23765e-09
79.4155	17182.9	22746.7	28507.3	-52.9326	56.8102	-0.00221772	9.3685e-08	0.088104	0.0560948	1	14	0.1365	4.78825e-06	-3.73663e-06	0.000425134	2.11438e-05	2.79903e-05	3.50788e-05	52.9326	5.7995e-09
70.8387	18056.8	24791.6	30670.3	-53.9325	57.5614	-0.00222551	9.77789e-08	0.0906245	0.0592129	1	14	0.136418	4.44789e-06	-3.73924e-06	0.000906148	1.91957e-05	2.63553e-05	3.26048e-05	53.9325	-2.6104e-09