Folder: EIS_Manager/data (part 2)

File: DE_65_6_60.mpt
EC-Lab ASCII FILE
Nb header lines : 60

Potentio Electrochemical Impedance Spectroscopy

Run on channel : 2 (SN 20919)
User :
CE vs. WE compliance from -10 V to 10 V
Electrode connection : standard
Ewe ctrl range : min = -10.00 V, max = 10.00 V
Acquisition started on : 02/20/2020 14:50:33
Technique started on : 02/20/2020 14:50:34
Saved on :
	File : DE_65_6_60.mpr
	Directory : P:\Chemistry\Data\VMP3\Kyler\DOE\DE_65\60C\
	Host : 10.0.4.64
Device : VMP3 (SN 1432)
Address : USB
EC-Lab for windows v11.33 (software)
Internet server v11.32 (firmware)
Command interpretor v11.33 (firmware)
Electrode material :
Initial state :
Electrolyte :
Comments :
Electrode surface area : 0.001 cm²
Characteristic mass : 0.001 g
Equivalent Weight : 0.000 g/eq.
Density : 0.000 g/cm3
Record Analogic IN 1
Cycle Definition : Charge/Discharge alternance
Mode                Single sine
E (V)               0.0000
vs.                 Eoc
tE (h:m:s)          0:00:0.0000
record              0
dI                  1.000
unit dI             mA
dt (s)              0.000
fi                  1.000
unit fi             MHz
ff                  1.000
unit ff             Hz
Nd                  20
Points              per decade
spacing             Logarithmic
Va (mV)             128.0
pw                  0.50
Na                  3
corr                0
E range min (V)     -10.000
E range max (V)     10.000
I Range             Auto
Bandwidth           5
nc cycles           0
goto Ns'            0
nr cycles           0
inc. cycle          1

freq/Hz	Re(Z)/Ohm	-Im(Z)/Ohm	|Z|/Ohm	Phase(Z)/deg	time/s	<Ewe>/V	<I>/mA	Cs/µF	Cp/µF	cycle number	I Range	|Ewe|/V	|I|/A	(Q-Qo)/mA.h	Analog IN 1/V	Re(Y)/Ohm-1	Im(Y)/Ohm-1	|Y|/Ohm-1	Phase(Y)/deg	dq/mA.h
1.00002e+06	98.7273	42.6767	107.556	-23.3773	1.84749	0.0813411	-0.00086485	0.00372925	0.000587125	1	11	0.0018582	1.72765e-05	-1.22333e-07	-0.000537302	0.00853424	0.00368908	0.00929745	23.3773	-1.22333e-07
707950	109.603	36.002	115.365	-18.1841	3.63348	0.0824294	-0.000862433	0.00624441	0.000608132	1	11	0.0071988	6.24004e-05	-6.9632e-07	-0.000136398	0.00823526	0.00270508	0.00866816	18.1841	-2.18577e-07
501206	120.585	32.0191	124.763	-14.8707	5.42149	0.0830431	-0.000810765	0.00991733	0.000653191	1	11	0.0187846	0.000150562	-1.09998e-06	0.000104145	0.00774674	0.00205701	0.00801519	14.8707	-5.73502e-08
354810	128.702	27.8987	131.691	-12.2308	7.20947	0.0832489	-0.000823028	0.0160783	0.000721597	1	11	0.0373887	0.000283912	-1.76418e-06	-0.000777844	0.00742116	0.00160868	0.00759352	12.2308	-5.90724e-07
251188	134.581	23.7151	136.655	-9.99372	8.99648	0.0832264	-0.000834731	0.0267176	0.000804633	1	11	0.0642319	0.000470032	-2.89447e-06	0.000104145	0.00720669	0.00126992	0.00731772	9.99372	-1.33887e-07
177832	138.771	19.8503	140.183	-8.14057	10.7855	0.0832405	-0.000906645	0.0450863	0.000904033	1	11	0.10025	0.000715135	-4.50251e-06	-0.000136398	0.00706164	0.00101012	0.00713352	8.14057	1.34562e-07
125909	141.859	16.6888	142.837	-6.70965	12.4375	0.0832773	-0.000870029	0.0757421	0.00103396	1	11	0.129172	0.000904333	-3.63228e-06	-0.000537302	0.00695303	0.000817981	0.00700098	6.70965	2.06743e-07
89129.3	144.236	14.2964	144.943	-5.66053	14.2245	0.0833406	-0.000831558	0.124903	0.00121515	1	11	0.129529	0.000893656	-3.65812e-06	-0.000216578	0.00686561	0.000680502	0.00689925	5.66053	1.90516e-07
63093.8	146.143	12.6057	146.686	-4.92989	16.0105	0.0833857	-0.000780079	0.200109	0.00147783	1	11	0.129322	0.000881624	-4.76009e-06	-5.62167e-05	0.00679207	0.000585855	0.00681729	4.92989	1.79081e-07
44666.7	147.833	11.5641	148.284	-4.47281	17.5245	0.0833736	-0.000876905	0.308123	0.00187395	1	11	0.14017	0.000945282	-5.16813e-06	2.39641e-05	0.00672327	0.000525923	0.00674381	4.47281	-2.56497e-08
31621.1	149.412	11.1252	149.826	-4.25838	19.1755	0.0834162	-0.000802195	0.452412	0.00249447	1	11	0.12978	0.000866205	-4.99133e-06	-0.000136398	0.006656	0.000495605	0.00667442	4.25838	6.44362e-07
22389	151.03	11.2101	151.445	-4.24496	20.6915	0.0834113	-0.000853861	0.634125	0.00347442	1	11	0.133784	0.000883382	-6.1957e-06	0.000184326	0.00658492	0.000488762	0.00660304	4.24496	3.81153e-07
15847.7	152.759	11.7537	153.211	-4.39982	22.2065	0.0834269	-0.00071968	0.854436	0.00502864	1	11	0.131869	0.000860703	-6.89692e-06	0.000104145	0.00650773	0.000500722	0.00652696	4.39982	-7.50342e-07
11217.7	154.656	12.7296	155.179	-4.70535	23.5845	0.083411	-0.000795505	1.11456	0.00750004	1	11	0.137153	0.000883835	-7.54244e-06	-5.62167e-05	0.00642245	0.000528625	0.00644417	4.70535	-8.33476e-07
7944	156.734	14.1524	157.372	-5.15955	25.053	0.0834461	-0.000741981	1.41564	0.0114487	1	11	0.139921	0.000889113	-8.00355e-06	0.000184326	0.00632864	0.000571447	0.00635438	5.15955	-7.53818e-07
5621.06	159.003	16.0868	159.815	-5.77711	27.1493	0.0834646	-0.000798108	1.76008	0.0178335	1	11	0.129606	0.000810975	-9.8301e-06	-0.000296759	0.00622545	0.000629845	0.00625723	5.77711	-6.69393e-07
3981.27	161.5	18.6136	162.569	-6.57461	29.4297	0.0834794	-0.000762983	2.14766	0.0281549	1	11	0.130192	0.000800839	-1.05929e-05	0.000104145	0.00611078	0.000704297	0.00615123	6.57461	4.88947e-07
2817.3	164.256	21.9388	165.714	-7.60768	31.709	0.0834685	-0.000847172	2.57498	0.0451315	1	11	0.130435	0.000787108	-1.03702e-05	-0.000136398	0.00598136	0.0007989	0.00603448	7.60768	3.19719e-08
1995.64	167.32	26.309	169.376	-8.9359	33.9887	0.0834649	-0.00084773	3.03133	0.0731376	1	11	0.130522	0.000770608	-1.02885e-05	2.39641e-05	0.00583238	0.00091707	0.00590403	8.9359	-1.13995e-08
1411.84	170.795	32.0601	173.778	-10.6314	36.2702	0.083463	-0.000861112	3.51617	0.119678	1	11	0.130535	0.000751159	-1.21621e-05	0.000344687	0.0056557	0.00106164	0.00575448	10.6314	-8.13428e-07
1000.32	174.651	39.5971	179.084	-12.7742	38.5467	0.0834692	-0.000845874	4.01807	0.196441	1	11	0.13052	0.000728822	-1.33257e-05	-5.62167e-05	0.00544577	0.00123467	0.00558398	12.7742	-7.76385e-07
707.509	178.889	49.6349	185.647	-15.5073	40.8275	0.0834699	-0.000844387	4.53211	0.323964	1	11	0.130489	0.000702888	-1.45829e-05	-0.000216578	0.00519046	0.00144015	0.00538655	15.5073	-8.47485e-07
501.444	183.425	63.0672	193.964	-18.9746	43.0992	0.0834721	-0.00080945	5.03262	0.532056	1	11	0.13046	0.000672598	-1.61495e-05	-5.62167e-05	0.00487545	0.00167633	0.00515559	18.9746	-5.51923e-07
354.66	188.27	81.6031	205.194	-23.4337	45.379	0.083467	-0.000828593	5.49923	0.869731	1	11	0.13043	0.000635644	-1.6205e-05	-0.000296759	0.00447148	0.0019381	0.00487343	23.4337	-3.13866e-07
251.044	193.467	107.271	221.216	-29.007	47.6479	0.0834701	-0.000868926	5.90998	1.3897	1	11	0.130399	0.000589464	-1.74649e-05	0.000264507	0.00395342	0.00219205	0.00452047	29.007	-6.93066e-07
177.781	199.304	142.93	245.257	-35.646	49.9403	0.0834718	-0.000865395	6.26342	2.12723	1	11	0.130375	0.000531585	-1.74424e-05	-5.62167e-05	0.0033134	0.00237619	0.00407736	35.646	3.48892e-07
125.846	206.031	192.559	282.006	-43.0642	52.4644	0.0834626	-0.000120179	6.56778	3.06215	1	12	0.130983	0.000464468	-1.77942e-05	0.000104145	0.00259068	0.00242128	0.00354602	43.0642	-3.1667e-07
89.116	213.935	261.465	337.835	-50.7093	54.7367	0.0834686	-0.000123388	6.83048	4.09138	1	12	0.130751	0.000387027	-1.83966e-05	-0.000296759	0.00187445	0.00229089	0.00296003	50.7093	6.33605e-08
63.0823	223.368	357.529	421.569	-58.0048	57.0328	0.0834716	-0.000129935	7.05669	5.0756	1	12	0.130566	0.000309716	-1.85838e-05	-0.000296759	0.00125685	0.00201175	0.00237209	58.0048	-1.46168e-07
44.6712	234.995	491.459	544.752	-64.4448	59.2972	0.0834647	-0.000137249	7.24945	5.90041	1	12	0.130447	0.000239461	-1.83272e-05	-0.000136398	0.000791884	0.00165611	0.0018357	64.4448	-9.90512e-08
31.6296	249.846	678.438	722.981	-69.7829	61.5345	0.083459	-0.000127645	7.41681	6.53106	1	12	0.130368	0.00018032	-1.83019e-05	-5.62167e-05	0.000477991	0.00129795	0.00138316	69.7829	1.44814e-07
22.3854	269.677	939.847	977.772	-73.9898	63.7824	0.0834598	-0.000133652	7.56482	6.98936	1	12	0.130325	0.000133288	-1.84242e-05	-5.62167e-05	0.000282078	0.000983065	0.00102273	73.9898	-3.71608e-07
15.8576	297.341	1303.46	1336.94	-77.1497	66.1099	0.0834609	-0.000132627	7.69993	7.31906	1	12	0.130303	9.74635e-05	-1.81504e-05	0.000344687	0.000166353	0.000729243	0.000747976	77.1497	4.61332e-07
11.2249	336.422	1810.82	1841.81	-79.4753	68.4869	0.0834687	-0.000138857	7.83004	7.5688	1	12	0.130286	7.07382e-05	-1.84887e-05	2.39641e-05	9.91736e-05	0.000533811	0.000542945	79.4753	1.72297e-07
7.93953	393.489	2518.05	2548.61	-81.1184	71.0307	0.0834719	-0.000128787	7.96087	7.7711	1	12	0.130283	5.1119e-05	-1.83378e-05	2.39641e-05	6.05795e-05	0.000387666	0.00039237	81.1184	3.88706e-07
5.6205	473.591	3515.05	3546.81	-82.3266	73.0897	0.0834718	-7.86904e-05	8.05588	7.91225	1	13	0.130312	3.67406e-05	-1.85076e-05	0.000264507	3.76466e-05	0.000279418	0.000281943	82.3266	8.92407e-08
3.97785	605.466	4874.62	4912.08	-82.9197	75.6252	0.0834701	4.12651e-05	8.20787	8.08317	1	13	0.130289	2.65242e-05	-1.8883e-05	-0.000216578	2.50934e-05	0.000202027	0.00020358	82.9197	2.24445e-07
2.81836	782.758	6764.11	6809.25	-83.399	79.1236	0.0834744	2.87758e-05	8.34858	8.23826	1	13	0.130283	1.91332e-05	-1.8947e-05	-5.62167e-05	1.68822e-05	0.000145885	0.000146859	83.399	4.06683e-08
1.99706	1057.3	9349.1	9408.69	-83.5478	83.9866	0.0834799	1.01602e-05	8.52431	8.41666	1	13	0.130279	1.38467e-05	-1.86993e-05	0.000104145	1.19437e-05	0.000105611	0.000106285	83.5478	4.17126e-07
1.41224	1442.62	12945.9	13026	-83.6415	90.7932	0.0834808	-1.41048e-05	8.70523	8.59846	1	13	0.130276	1.00012e-05	-1.85789e-05	-0.000136398	8.50215e-06	7.62972e-05	7.67694e-05	83.6415	4.5595e-07
1.00006	2047.21	17886	18002.8	-83.4704	100.339	0.0834705	-8.85379e-06	8.89774	8.78268	1	13	0.130275	7.23637e-06	-1.91421e-05	-5.62167e-05	6.31662e-06	5.51867e-05	5.5547e-05	83.4704	-5.78816e-07

File: DE_65_7_60.mpt
EC-Lab ASCII FILE
Nb header lines : 60

Potentio Electrochemical Impedance Spectroscopy

Run on channel : 3 (SN 20921)
User :
CE vs. WE compliance from -10 V to 10 V
Electrode connection : standard
Ewe ctrl range : min = -10.00 V, max = 10.00 V
Acquisition started on : 02/20/2020 14:50:41
Technique started on : 02/20/2020 14:50:42
Saved on :
	File : DE_65_7_60.mpr
	Directory : P:\Chemistry\Data\VMP3\Kyler\DOE\DE_65\60C\
	Host : 10.0.4.64
Device : VMP3 (SN 1432)
Address : USB
EC-Lab for windows v11.33 (software)
Internet server v11.32 (firmware)
Command interpretor v11.33 (firmware)
Electrode material :
Initial state :
Electrolyte :
Comments :
Electrode surface area : 0.001 cm²
Characteristic mass : 0.001 g
Equivalent Weight : 0.000 g/eq.
Density : 0.000 g/cm3
Record Analogic IN 1
Cycle Definition : Charge/Discharge alternance
Mode                Single sine
E (V)               0.0000
vs.                 Eoc
tE (h:m:s)          0:00:0.0000
record              0
dI                  1.000
unit dI             mA
dt (s)              0.000
fi                  1.000
unit fi             MHz
ff                  1.000
unit ff             Hz
Nd                  20
Points              per decade
spacing             Logarithmic
Va (mV)             128.0
pw                  0.50
Na                  3
corr                0
E range min (V)     -10.000
E range max (V)     10.000
I Range             Auto
Bandwidth           5
nc cycles           0
goto Ns'            0
nr cycles           0
inc. cycle          1

freq/Hz	Re(Z)/Ohm	-Im(Z)/Ohm	|Z|/Ohm	Phase(Z)/deg	time/s	<Ewe>/V	<I>/mA	Cs/µF	Cp/µF	cycle number	I Range	|Ewe|/V	|I|/A	(Q-Qo)/mA.h	Analog IN 1/V	Re(Y)/Ohm-1	Im(Y)/Ohm-1	|Y|/Ohm-1	Phase(Y)/deg	dq/mA.h
1.00002e+06	116.485	80.5089	141.599	-34.6505	1.94949	-0.36876	0.000201241	0.00197683	0.000639049	1	11	0.00451799	3.19069e-05	4.07593e-08	2.67859e-06	0.00580961	0.00401534	0.00706218	34.6505	4.07593e-08
707950	139.082	78.4427	159.678	-29.4232	3.73748	-0.367703	0.000164151	0.00286593	0.000691642	1	11	0.0126974	7.95187e-05	1.23915e-07	-0.000317989	0.00545483	0.00307655	0.00626261	29.4232	2.66207e-08
501206	162.308	76.9851	179.64	-25.3757	5.52647	-0.367056	0.000210563	0.00412475	0.000757535	1	11	0.0277704	0.000154589	-1.04812e-07	-0.000478322	0.00502959	0.00238561	0.00556668	25.3757	-1.00307e-07
354810	183.232	72.1817	196.937	-21.5012	7.31247	-0.366879	0.0001608	0.00621438	0.000834825	1	11	0.0499948	0.000253862	1.89369e-07	-0.000157655	0.0047244	0.00186111	0.00507776	21.5012	-1.51611e-07
251188	200.517	65.014	210.794	-17.9643	9.09948	-0.36689	6.98486e-05	0.00974575	0.000927072	1	11	0.0809114	0.000383841	3.98018e-07	-0.000237822	0.0045127	0.00146316	0.00474397	17.9643	3.09275e-07
177832	214.05	57.3389	221.596	-14.9961	10.7495	-0.36685	8.96082e-05	0.0156085	0.00104504	1	11	0.121705	0.000549218	2.02735e-06	0.000163012	0.00435902	0.00116768	0.00451271	14.9961	1.96859e-07
125909	224.731	50.4454	230.323	-12.6515	12.4015	-0.366729	4.4316e-05	0.0250577	0.00120201	1	11	0.12987	0.000563859	2.11712e-06	-0.000398155	0.00423631	0.000950923	0.00434172	12.6515	-7.49518e-08
89129.3	233.284	44.9312	237.571	-10.9019	14.1885	-0.366645	0.000121481	0.0397421	0.00142155	1	11	0.129503	0.000545113	1.79756e-06	-0.000398155	0.0041333	0.000796088	0.00420927	10.9019	-5.20494e-07
63093.8	240.423	40.7998	243.86	-9.63135	15.8385	-0.366602	6.70554e-05	0.0618265	0.00173065	1	11	0.140211	0.000574966	1.24635e-06	-0.000478322	0.00404291	0.000686083	0.00410071	9.63135	1.96797e-08
44666.7	246.61	38.2299	249.556	-8.81194	17.4885	-0.366552	8.86757e-05	0.0932036	0.00218728	1	11	0.130059	0.000521162	2.82744e-06	-7.74882e-05	0.00395982	0.000613858	0.00400712	8.81194	8.01571e-07
31621.1	252.171	37.2314	254.905	-8.39866	19.0045	-0.366541	0.000101536	0.135187	0.002884	1	11	0.135032	0.000529733	2.56479e-06	-0.000478322	0.00388096	0.000572997	0.00392303	8.39866	-4.54583e-07
22389	257.351	37.916	260.129	-8.3812	20.5175	-0.366517	4.86028e-05	0.187483	0.00398318	1	11	0.132826	0.000510617	2.8052e-06	-0.000398155	0.00380319	0.000560331	0.00384424	8.3812	2.53123e-08
15847.7	262.328	40.452	265.429	-8.76618	21.8975	-0.366519	0.000123344	0.248264	0.00576632	1	11	0.139666	0.000526189	4.02486e-06	8.28454e-05	0.00372348	0.000574175	0.00376749	8.76618	4.88122e-07
11217.7	267.261	45.2763	271.069	-9.61513	23.4115	-0.366513	6.55638e-05	0.313361	0.00874236	1	11	0.13136	0.000484602	2.84953e-06	8.28454e-05	0.00363728	0.000616187	0.0036891	9.61513	-4.50871e-07
7944	272.351	52.9418	277.448	-11.0004	24.88	-0.366498	6.78002e-05	0.378427	0.0137789	1	11	0.133052	0.000479556	2.4991e-06	-0.000157655	0.00353805	0.000687755	0.00360427	11.0004	-2.17877e-07
5621.06	277.934	64.3069	285.277	-13.0275	26.7923	-0.366471	-6.71442e-05	0.440296	0.0223731	1	11	0.13386	0.000469229	2.50297e-06	8.28454e-05	0.00341515	0.000790178	0.00350537	13.0275	-3.94723e-07
3981.27	284.377	80.3546	295.512	-15.7784	29.0717	-0.366453	-8.9325e-05	0.497493	0.036784	1	11	0.134191	0.000454097	2.22284e-06	-0.000157655	0.00325645	0.000920156	0.00338396	15.7784	-4.18075e-07
2817.3	292.135	102.589	309.624	-19.3498	31.351	-0.366477	-0.000103491	0.550662	0.0604533	1	11	0.134292	0.000433725	2.84196e-06	8.28454e-05	0.00304728	0.00107012	0.00322972	19.3498	2.55422e-07
1995.64	301.852	132.687	329.728	-23.7292	33.6307	-0.366478	-8.76484e-05	0.601048	0.0973318	1	11	0.134274	0.000407227	2.70418e-06	-0.000478322	0.0027764	0.00122044	0.0030328	23.7292	2.92287e-07
1411.84	314.276	173.382	358.93	-28.885	36.1632	-0.366479	2.64886e-05	0.650177	0.151712	1	12	0.137985	0.000384434	2.32231e-06	-0.000157655	0.00243945	0.00134581	0.00278606	28.885	-1.42722e-07
1000.32	330.257	227.676	401.131	-34.582	38.4407	-0.366477	7.02445e-06	0.698817	0.225126	1	12	0.137092	0.000341764	2.07608e-06	-0.000317989	0.00205248	0.00141496	0.00249295	34.582	-1.46163e-07
707.509	350.975	300.485	462.033	-40.5683	40.7214	-0.366481	1.29517e-05	0.748626	0.316639	1	12	0.136167	0.000294712	1.86082e-06	-0.000478322	0.00164411	0.00140759	0.00216435	40.5683	-2.59182e-07
501.444	377.443	396.894	547.712	-46.4389	42.9932	-0.366482	5.93798e-06	0.799692	0.419921	1	12	0.135394	0.000247199	1.45362e-06	-7.74882e-05	0.00125819	0.00132303	0.00182578	46.4389	-7.59104e-08
354.66	411.252	526.478	668.062	-52.0052	45.272	-0.366477	-2.57568e-05	0.85237	0.529364	1	12	0.134805	0.000201786	1.54733e-06	-7.74882e-05	0.000921455	0.00117963	0.00149687	52.0052	-5.29357e-08
251.044	453.755	699.892	834.112	-57.0438	47.5409	-0.366475	-5.24881e-06	0.905813	0.637753	1	12	0.134414	0.000161147	1.80767e-06	-0.000398155	0.000652188	0.00100596	0.00119888	57.0438	1.82601e-07
177.781	507.326	933.017	1062.03	-61.465	49.8333	-0.366477	4.22546e-05	0.959499	0.740547	1	12	0.134157	0.000126322	1.86662e-06	2.67859e-06	0.000449797	0.000827216	0.000941596	61.465	-8.3914e-08
125.846	575.48	1249.56	1375.71	-65.2718	52.1074	-0.366472	-1.82082e-05	1.0121	0.834998	1	12	0.134008	9.74103e-05	1.91884e-06	-0.000157655	0.000304072	0.000660242	0.000726897	65.2718	6.4681e-08
89.116	663.258	1678.5	1804.8	-68.4386	54.3797	-0.366478	-2.88348e-06	1.064	0.920303	1	12	0.133917	7.42004e-05	1.8711e-06	2.67859e-06	0.000203623	0.000515307	0.000554079	68.4386	-6.83408e-08
63.0823	778.588	2262.65	2392.86	-71.0114	56.6758	-0.366481	6.43768e-06	1.11505	0.997001	1	12	0.133866	5.5944e-05	1.89862e-06	-0.000638656	0.00013598	0.000395169	0.00041791	71.0114	-2.20672e-08
44.6712	931.87	3058.23	3197.06	-73.0536	59.1912	-0.366482	-3.55872e-06	1.16499	1.06601	1	13	0.134126	4.19529e-05	1.9104e-06	-7.74882e-05	9.11705e-05	0.000299206	0.000312788	73.0536	1.20622e-08
31.6296	1140.1	4138.97	4293.12	-74.5995	61.4285	-0.366484	-1.03092e-05	1.21572	1.12999	1	13	0.133975	3.12068e-05	1.95416e-06	-0.000478322	6.18582e-05	0.000224567	0.000232931	74.5995	2.72121e-08
22.3854	1425.32	5609.4	5787.65	-75.7432	63.6754	-0.366483	-8.73465e-06	1.26747	1.1906	1	13	0.133894	2.31344e-05	1.92303e-06	-0.000237822	4.25508e-05	0.00016746	0.000172782	75.7432	3.32777e-08
15.8576	1818.52	7597.16	7811.77	-76.5385	66.003	-0.366484	-4.79681e-06	1.32109	1.2495	1	13	0.13385	1.71344e-05	1.92298e-06	8.28454e-05	2.98002e-05	0.000124495	0.000128012	76.5385	3.02071e-08
11.2249	2367.41	10292.1	10560.9	-77.046	68.3799	-0.366479	-5.39707e-06	1.37764	1.30841	1	13	0.13383	1.26723e-05	1.97028e-06	-0.000157655	2.12263e-05	9.22793e-05	9.46891e-05	77.046	7.63467e-08
7.93953	3134.65	13939.9	14288	-77.3268	70.9237	-0.366474	-4.71595e-06	1.43802	1.3688	1	13	0.133818	9.36571e-06	1.87949e-06	2.67859e-06	1.53548e-05	6.82836e-05	6.99887e-05	77.3268	-6.47563e-08
5.6205	4240.65	18933.3	19402.3	-77.3753	72.7887	-0.366482	1.564e-05	1.49561	1.42417	1	13	0.13381	6.89658e-06	1.87507e-06	-0.000237822	1.12648e-05	5.02941e-05	5.15402e-05	77.3753	2.01392e-08
3.97785	5725.91	25493.5	26128.6	-77.3413	75.3242	-0.366477	-1.62373e-05	1.56943	1.49406	1	13	0.133802	5.12091e-06	1.87772e-06	0.000163012	8.38711e-06	3.73419e-05	3.82722e-05	77.3413	-8.64552e-08
2.81836	7760.5	34471.9	35334.6	-77.3128	79.1546	-0.366476	-8.79824e-06	1.63817	1.55915	1	14	0.13382	3.78722e-06	1.98171e-06	-0.000398155	6.21568e-06	2.76098e-05	2.83009e-05	77.3128	2.25986e-08
1.99706	10765.5	46334.3	47568.5	-76.9198	84.0167	-0.366472	-6.82122e-06	1.71999	1.6319	1	14	0.133814	2.81308e-06	1.92748e-06	0.000163012	4.75767e-06	2.04769e-05	2.10223e-05	76.9198	-6.27966e-08
1.41224	14804.9	62206.9	63944.4	-76.613	90.8232	-0.366469	-1.78635e-06	1.81165	1.71453	1	14	0.133809	2.09258e-06	1.8743e-06	-0.000237822	3.62076e-06	1.52137e-05	1.56386e-05	76.613	-1.15711e-07
1.00006	20689	83393.7	85921.8	-76.0669	100.369	-0.36646	5.46882e-08	1.90835	1.79771	1	14	0.133807	1.55731e-06	1.98195e-06	-0.000317989	2.80243e-06	1.12961e-05	1.16385e-05	76.0669	1.03316e-07