Folder: EIS_Manager/data (part 5)

File: DE_65_12_60.mpt
EC-Lab ASCII FILE
Nb header lines : 60

Potentio Electrochemical Impedance Spectroscopy

Run on channel : 4 (SN 4192)
User :
CE vs. WE compliance from -10 V to 10 V
Electrode connection : standard
Ewe ctrl range : min = -10.00 V, max = 10.00 V
Acquisition started on : 02/20/2020 14:49:02
Technique started on : 02/20/2020 14:49:03
Saved on :
	File : DE_65_12_60.mpr
	Directory : P:\Chemistry\Data\VMP3\Kyler\DOE\DE_65\60C\
	Host : 10.0.4.64
Device : VMP3 (SN 1432)
Address : USB
EC-Lab for windows v11.33 (software)
Internet server v11.32 (firmware)
Command interpretor v11.33 (firmware)
Electrode material :
Initial state :
Electrolyte :
Comments :
Electrode surface area : 0.001 cm²
Characteristic mass : 0.001 g
Equivalent Weight : 0.000 g/eq.
Density : 0.000 g/cm3
Record Analogic IN 1
Cycle Definition : Charge/Discharge alternance
Mode                Single sine
E (V)               0.0000
vs.                 Eoc
tE (h:m:s)          0:00:0.0000
record              0
dI                  1.000
unit dI             mA
dt (s)              0.000
fi                  1.000
unit fi             MHz
ff                  1.000
unit ff             Hz
Nd                  20
Points              per decade
spacing             Logarithmic
Va (mV)             128.0
pw                  0.50
Na                  3
corr                0
E range min (V)     -10.000
E range max (V)     10.000
I Range             Auto
Bandwidth           5
nc cycles           0
goto Ns'            0
nr cycles           0
inc. cycle          1

freq/Hz	Re(Z)/Ohm	-Im(Z)/Ohm	|Z|/Ohm	Phase(Z)/deg	time/s	<Ewe>/V	<I>/mA	Cs/µF	Cp/µF	cycle number	I Range	|Ewe|/V	|I|/A	(Q-Qo)/mA.h	Analog IN 1/V	Re(Y)/Ohm-1	Im(Y)/Ohm-1	|Y|/Ohm-1	Phase(Y)/deg	dq/mA.h
1.00002e+06	78.4722	24.3956	82.1768	-17.2695	1.95149	-0.00198052	-0.0086212	0.00652379	0.000574944	1	11	0.00259188	3.15403e-05	-2.87313e-06	-0.000644957	0.0116203	0.00361254	0.0121689	17.2695	-2.87313e-06
707950	82.9834	17.7576	84.8621	-12.0785	3.73749	-0.00132351	-0.00491358	0.01266	0.000554337	1	11	0.00713428	8.40692e-05	-5.85132e-06	-0.000243989	0.011523	0.00246579	0.0117838	12.0785	-8.4701e-07
501206	87.8023	15.2404	89.1152	-9.84711	5.52449	-0.0009863	-0.00302897	0.0208356	0.000609394	1	11	0.0161536	0.000181266	-7.42562e-06	-8.36012e-05	0.0110561	0.00191909	0.0112214	9.84711	-3.1581e-07
354810	90.7903	13.722	91.8214	-8.59462	7.30948	-0.000826942	-0.00213114	0.0326894	0.000730054	1	11	0.0305478	0.000332688	-7.91663e-06	-0.000564764	0.0107684	0.00162754	0.0108907	8.59462	-1.87576e-07
251188	93.1595	12.7224	94.0242	-7.77651	9.09549	-0.000835591	-0.00218288	0.0498028	0.000911823	1	11	0.0521067	0.000554184	-7.42398e-06	0.000237174	0.0105378	0.00143909	0.0106356	7.77651	5.04985e-07
177832	94.9708	12.2952	95.7634	-7.37665	10.8835	-0.000858353	-0.00245664	0.0727906	0.00119991	1	11	0.0821253	0.000857585	-8.36458e-06	-0.00112612	0.010356	0.00134071	0.0104424	7.37665	-2.25905e-07
125909	96.9219	12.4923	97.7236	-7.34437	12.5345	-0.000841071	-0.00237996	0.101186	0.0016535	1	11	0.120467	0.00123273	-9.1493e-06	-0.00048457	0.010149	0.0013081	0.0102329	7.34437	-1.41348e-06
89129.3	99.1605	13.1996	100.035	-7.58225	14.1855	-0.000787491	-0.00220258	0.135282	0.00235534	1	11	0.129793	0.00129747	-4.81401e-06	-0.000324182	0.00990908	0.00131903	0.00999648	7.58225	2.55081e-06
63093.8	101.912	14.2332	102.901	-7.9506	15.9715	-0.000767934	-0.00203583	0.177228	0.00339075	1	11	0.129579	0.00125926	-9.72261e-06	-3.40745e-06	0.00962466	0.0013442	0.00971808	7.9506	-1.40672e-06
44666.7	105.229	15.278	106.333	-8.26094	17.6215	-0.000735868	-0.00185045	0.233221	0.00481472	1	11	0.140737	0.00132356	-9.45602e-06	-0.000805345	0.00930687	0.00135125	0.00940445	8.26094	-1.05237e-06
31621.1	109.121	16.0311	110.292	-8.3576	19.2735	-0.000737938	-0.00196064	0.313964	0.00663308	1	11	0.130135	0.00117991	-1.31917e-05	-0.000644957	0.00897054	0.00131787	0.00906683	8.3576	-3.08784e-06
22389	113.128	16.214	114.284	-8.15634	20.7875	-0.000716051	-0.00188936	0.438425	0.00882482	1	11	0.134878	0.00118021	-1.5117e-05	-0.00048457	0.00866164	0.00124143	0.00875016	8.15634	-1.37337e-06
15847.7	116.998	15.9545	118.081	-7.76524	22.3015	-0.000705481	-0.00176354	0.629466	0.0114915	1	11	0.132305	0.00112046	-1.57786e-05	-0.000805345	0.0083911	0.00114425	0.00846876	7.76524	-3.40999e-07
11217.7	120.404	15.462	121.393	-7.31774	23.6805	-0.000712118	-0.00181249	0.917592	0.0148866	1	11	0.137883	0.00113584	-1.68339e-05	0.000397561	0.00817062	0.00104925	0.00823772	7.31774	-8.48563e-07
7944	123.376	15.1318	124.3	-6.99231	25.149	-0.00063091	-0.00122827	1.32401	0.0196214	1	11	0.140688	0.00113184	-1.79223e-05	-0.000243989	0.00798521	0.000979373	0.00804504	6.99231	1.77653e-07
5621.06	126.091	15.2082	127.005	-6.87735	27.2303	-0.000616108	-0.000977949	1.86177	0.0266953	1	11	0.130032	0.00102383	-1.96813e-05	-3.40745e-06	0.00781704	0.00094283	0.00787369	6.87735	-5.04433e-07
3981.27	128.715	15.8199	129.683	-7.00688	29.5107	-0.000623826	-0.00105295	2.52694	0.037604	1	11	0.130558	0.00100675	-1.88068e-05	-0.000725151	0.00765352	0.000940667	0.00771111	7.00688	5.90813e-07
2817.3	131.545	17.0174	132.642	-7.37113	31.791	-0.00061553	-0.0010939	3.31967	0.0546413	1	11	0.13077	0.00098589	-1.73627e-05	0.00015698	0.00747681	0.000967237	0.00753911	7.37113	4.77453e-07
1995.64	134.784	18.7577	136.083	-7.92291	34.0707	-0.000594836	-0.000889729	4.25166	0.0807817	1	11	0.130819	0.000961321	-1.84428e-05	-0.000805345	0.00727834	0.00101292	0.00734848	7.92291	6.04561e-07
1411.84	138.649	20.9669	140.225	-8.59927	36.3522	-0.000613703	-0.000977579	5.37653	0.120203	1	11	0.130807	0.000932837	-2.03171e-05	-0.000564764	0.00705121	0.0010663	0.00713138	8.59927	-5.41136e-07
1000.32	143.382	23.4456	145.286	-9.2867	38.6297	-0.000610012	-0.00111642	6.7861	0.176722	1	11	0.130775	0.000900116	-2.17781e-05	-0.000564764	0.00679274	0.00111074	0.00688295	9.2867	-7.05375e-07
707.509	149.152	25.9105	151.386	-9.85498	40.9105	-0.000612901	-0.00122865	8.68185	0.254326	1	11	0.130728	0.000863537	-2.31685e-05	-0.000163795	0.00650815	0.00113059	0.00660563	9.85498	-1.01032e-06
501.444	155.851	27.9896	158.345	-10.1813	43.1822	-0.000620172	-0.00135819	11.3397	0.354312	1	11	0.130682	0.000825298	-2.51428e-05	-0.000965732	0.00621589	0.00111632	0.00631533	10.1813	-3.32591e-07
354.66	163.418	29.27	166.019	-10.1546	45.4619	-0.000631432	-0.00137177	15.3315	0.476557	1	11	0.130642	0.000786909	-2.61845e-05	-0.000885539	0.00592905	0.00106196	0.0060234	10.1546	-7.13434e-07
251.044	171.451	29.432	173.959	-9.74071	47.7299	-0.000621962	-0.00119459	21.5402	0.616592	1	11	0.13062	0.000750869	-2.72044e-05	-0.000324182	0.00566562	0.000972586	0.0057485	9.74071	-4.65867e-07
177.781	179.384	28.2937	181.602	-8.96324	50.0222	-0.000613498	-0.000990982	31.6406	0.76804	1	11	0.130602	0.000719166	-2.75013e-05	-8.36012e-05	0.00543931	0.000857926	0.00550656	8.96324	-6.74654e-07
125.846	186.706	25.9659	188.503	-7.91755	52.2974	-0.000623229	-0.00103156	48.7055	0.924161	1	11	0.130589	0.000692768	-2.78202e-05	0.000237174	0.00525437	0.000730745	0.00530495	7.91755	3.90292e-07
89.116	192.858	22.712	194.191	-6.71652	54.5697	-0.000625951	-0.00104105	78.6337	1.07563	1	11	0.130582	0.00067244	-2.819e-05	0.00015698	0.00511423	0.000602279	0.00514957	6.71652	-7.79247e-07
63.0823	197.721	19.0983	198.642	-5.51719	56.8658	-0.000625933	-0.00104701	132.105	1.22114	1	11	0.130575	0.00065734	-2.85081e-05	-0.000404376	0.00501087	0.00048401	0.00503419	5.51719	-2.39081e-07
44.6712	201.242	15.531	201.84	-4.4131	59.1312	-0.000624217	-0.000936268	229.4	1.35824	1	11	0.130571	0.000646901	-2.99252e-05	-0.000564764	0.00493972	0.000381227	0.00495441	4.4131	-2.56289e-07
31.6296	203.727	12.3125	204.099	-3.45854	61.3685	-0.000620824	-0.000838186	408.677	1.48728	1	11	0.130572	0.00063975	-3.14301e-05	0.000317367	0.00489066	0.000295573	0.00489958	3.45854	-9.14689e-07
22.3854	205.41	9.56817	205.632	-2.66696	63.6164	-0.000623248	-0.000885459	743.065	1.6088	1	11	0.13057	0.000634966	-3.12884e-05	-0.000324182	0.00485778	0.00022628	0.00486304	2.66696	-2.00022e-07
15.8576	206.553	7.36968	206.685	-2.04341	65.9449	-0.000622241	-0.000893649	1361.87	1.73147	1	11	0.13057	0.000631738	-3.35848e-05	-0.00048457	0.00483521	0.000172517	0.00483829	2.04341	-2.87065e-06
11.2249	207.296	5.58425	207.371	-1.54309	68.3219	-0.000625429	-0.000889926	2539.07	1.84122	1	11	0.130574	0.000629661	-3.5412e-05	-0.000163795	0.00482052	0.000129857	0.00482226	1.54309	-4.33464e-06
7.93953	207.758	4.21331	207.8	-1.1618	70.8657	-0.00062775	-0.00104496	4757.75	1.95594	1	11	0.130576	0.000628372	-3.33433e-05	-0.000644957	0.00481132	9.75733e-05	0.00481231	1.1618	4.4312e-07
5.6205	208.101	3.15584	208.125	-0.86882	72.7307	-0.000625	-0.000974609	8972.83	2.06306	1	11	0.130565	0.000627337	-3.05652e-05	0.000477755	0.00480425	7.28561e-05	0.0048048	0.86882	1.46213e-07
3.97785	208.311	2.36441	208.324	-0.650301	75.2662	-0.000633641	-0.00106478	16921.9	2.17979	1	11	0.130582	0.000626821	-3.57992e-05	-0.000163795	0.0047999	5.44807e-05	0.00480021	0.650301	7.39305e-06
2.81836	208.401	1.78282	208.409	-0.49014	78.7646	-0.000629602	-0.00106809	31674.9	2.31792	1	11	0.13058	0.000626559	-3.87367e-05	-8.36012e-05	0.00479808	4.10464e-05	0.00479826	0.49014	5.72736e-06
1.99706	208.426	1.32418	208.431	-0.364007	83.6267	-0.000615758	-0.0010123	60184.3	2.42913	1	11	0.130581	0.000626496	-2.86365e-05	-0.000564764	0.00479766	3.04805e-05	0.00479776	0.364007	2.31287e-05
1.41224	208.316	0.983647	208.318	-0.270543	90.4332	-0.000613206	-0.00102633	114571	2.55444	1	11	0.130582	0.000626839	-2.64796e-05	-0.000324182	0.00480029	2.26665e-05	0.00480034	0.270543	1.97392e-05
1.00006	208.172	0.734351	208.173	-0.202117	99.9782	-0.000615744	-0.00103365	216715	2.69678	1	11	0.130583	0.000627278	-7.19121e-05	-0.000805345	0.00480366	1.69455e-05	0.00480369	0.202117	-5.53425e-05

File: DE_104_1_30.mpt
EC-Lab ASCII FILE
Nb header lines : 59

Potentio Electrochemical Impedance Spectroscopy

Run on channel : 1 (SN 20909)
User :
CE vs. WE compliance from -10 V to 10 V
Electrode connection : standard
Ewe ctrl range : min = -10.00 V, max = 10.00 V
Acquisition started on : 05/08/2020 13:14:57
Saved on :
	File : DE_104_1_30.mpr
	Directory : P:\Chemistry\Data\VMP3\Kyler\DOE\DE_104\
	Host : 10.0.4.64
Device : VMP3 (SN 1432)
Address : USB
EC-Lab for windows v11.33 (software)
Internet server v11.32 (firmware)
Command interpretor v11.33 (firmware)
Electrode material :
Initial state :
Electrolyte :
Comments :
Electrode surface area : 0.001 cm²
Characteristic mass : 0.001 g
Equivalent Weight : 0.000 g/eq.
Density : 0.000 g/cm3
Record Analogic IN 1
Cycle Definition : Charge/Discharge alternance
Mode                Single sine
E (V)               0.0000
vs.                 Eoc
tE (h:m:s)          0:00:0.0000
record              0
dI                  1.000
unit dI             mA
dt (s)              0.000
fi                  1.000
unit fi             MHz
ff                  1.000
unit ff             Hz
Nd                  20
Points              per decade
spacing             Logarithmic
Va (mV)             128.0
pw                  0.50
Na                  3
corr                0
E range min (V)     -10.000
E range max (V)     10.000
I Range             Auto
Bandwidth           5
nc cycles           0
goto Ns'            0
nr cycles           0
inc. cycle          1

freq/Hz	Re(Z)/Ohm	-Im(Z)/Ohm	|Z|/Ohm	Phase(Z)/deg	time/s	<Ewe>/V	<I>/mA	Cs/µF	Cp/µF	cycle number	I Range	|Ewe|/V	|I|/A	(Q-Qo)/mA.h	Analog IN 1/V	Re(Y)/Ohm-1	Im(Y)/Ohm-1	|Y|/Ohm-1	Phase(Y)/deg	dq/mA.h
1.00002e+06	380.531	431.645	575.431	-48.6011	1.60749	-0.0706656	-3.07479e-05	0.000368711	0.000207468	1	12	0.000913735	1.58791e-06	-2.27196e-08	-5.82835e-05	0.00114922	0.00130359	0.00173783	48.6011	-2.27196e-08
707950	458.404	534.237	703.948	-49.3687	3.39549	-0.0692489	-1.63952e-05	0.000420808	0.000242365	1	12	0.00180639	2.56608e-06	-7.74677e-08	-0.000298891	0.000925053	0.00107808	0.00142056	49.3687	-3.94847e-08
501206	555.802	701.72	895.169	-51.6188	5.18249	-0.0682288	-1.49765e-05	0.000452522	0.000278072	1	12	0.00488216	5.4539e-06	-3.6622e-08	2.1919e-05	0.000693602	0.000875698	0.00111711	51.6188	4.52207e-09
354810	690.045	909.2	1141.41	-52.803	6.96949	-0.067684	-2.82274e-05	0.000493361	0.000313043	1	12	0.0234338	2.05306e-05	1.46496e-08	0.000182324	0.00052966	0.000697878	0.000876113	52.803	-5.60729e-08
251188	882.682	1148.67	1448.64	-52.4599	8.75449	-0.0675188	-3.75888e-06	0.000551604	0.000346812	1	12	0.0558831	3.85762e-05	-6.97964e-08	-5.82835e-05	0.000420612	0.000547359	0.000690302	52.4599	-1.09828e-07
177832	1146.6	1408.28	1816.02	-50.8482	10.5415	-0.0674303	-1.99587e-05	0.000635509	0.000382171	1	12	0.104442	5.75113e-05	-8.99098e-08	2.1919e-05	0.000347671	0.000427019	0.000550654	50.8482	-1.25217e-07
125909	1490.61	1673.77	2241.3	-48.3128	12.1935	-0.0673165	-1.57411e-05	0.000755208	0.000421172	1	12	0.130382	5.81724e-05	-3.30429e-07	2.1919e-05	0.000296732	0.000333194	0.00044617	48.3128	-1.18134e-07
89129.3	1917.15	1930.51	2720.72	-45.199	13.9815	-0.067196	-3.39011e-05	0.000924969	0.000465698	1	12	0.129998	4.77807e-05	-4.52893e-07	0.000342729	0.000258992	0.000260798	0.00036755	45.199	-9.69384e-08
63093.8	2420.81	2155.92	3241.65	-41.6876	15.7695	-0.0671797	-5.45435e-05	0.00117004	0.000517527	1	12	0.129391	3.99152e-05	-4.32396e-07	2.1919e-05	0.000230371	0.000205163	0.000308484	41.6876	-2.00998e-08
44666.7	2987.45	2334.49	3791.4	-38.0053	17.2835	-0.0671698	-3.15683e-05	0.00152631	0.000578669	1	12	0.137667	3.63105e-05	-5.16154e-07	0.000342729	0.000207827	0.000162403	0.000263755	38.0053	-1.7059e-08
31621.1	3593.65	2449.97	4349.33	-34.2843	18.7975	-0.0671616	-3.85676e-05	0.00205438	0.000651867	1	12	0.139179	3.2e-05	-4.89757e-07	0.000422931	0.000189972	0.000129514	0.00022992	34.2843	2.39479e-08
22389	4207.04	2501.38	4894.5	-30.7344	20.6145	-0.0671726	-3.41783e-06	0.00284188	0.000742246	1	13	0.135839	2.77535e-05	-5.10015e-07	0.000182324	0.000175615	0.000104415	0.000204311	30.7344	-2.84697e-08
15847.7	4810.45	2497.29	5420.04	-27.4356	22.2665	-0.0671703	-4.50064e-06	0.00402148	0.000853724	1	13	0.129778	2.3944e-05	-5.36804e-07	2.1919e-05	0.00016375	8.50087e-05	0.0001845	27.4356	1.51888e-08
11217.7	5369.29	2460.17	5906.08	-24.6169	23.7805	-0.06715	-5.25846e-06	0.00576701	0.00100065	1	13	0.129462	2.19202e-05	-5.97408e-07	-0.000379094	0.000153928	7.05289e-05	0.000169317	24.6169	-5.03364e-08
7944	5869.32	2424.09	6350.21	-22.4412	25.248	-0.067137	-5.74376e-06	0.00826479	0.00120435	1	13	0.134448	2.11722e-05	-5.65453e-07	0.000182324	0.00014555	6.01137e-05	0.000157475	22.4412	1.5859e-08
5621.06	6314.07	2427.24	6764.54	-21.0276	27.1603	-0.0671004	-5.83707e-06	0.0116651	0.00150189	1	13	0.136021	2.01079e-05	-5.68707e-07	-0.000138486	0.000137985	5.30439e-05	0.00014783	21.0276	9.48468e-09
3981.27	6713.46	2506.42	7166.08	-20.4727	29.4407	-0.0670921	-2.24416e-06	0.0159494	0.00195114	1	13	0.136259	1.90145e-05	-5.88466e-07	0.000102121	0.000130732	4.88079e-05	0.000139546	20.4727	-1.3307e-08
2817.3	7089.07	2693.98	7583.7	-20.8077	31.7209	-0.0670941	-5.94222e-07	0.0209697	0.00264618	1	13	0.136034	1.79376e-05	-6.24276e-07	-0.000138486	0.000123261	4.68417e-05	0.000131862	20.8077	-6.71222e-09
1995.64	7464.48	3022.69	8053.27	-22.0451	34.0007	-0.067093	-8.96618e-07	0.0263842	0.00371695	1	13	0.135684	1.68482e-05	-6.07423e-07	0.000102121	0.000115095	4.66068e-05	0.000124173	22.0451	-8.92619e-09
1411.84	7874.67	3520.24	8625.69	-24.0862	36.2822	-0.0671013	-2.60077e-06	0.0320231	0.00533359	1	13	0.135333	1.56895e-05	-5.99266e-07	0.000422931	0.000105839	4.73134e-05	0.000115933	24.0862	-1.92826e-09
1000.32	8335.29	4231.91	9348.05	-26.9173	38.5597	-0.0670924	-2.98523e-06	0.0375963	0.00770504	1	13	0.13502	1.44436e-05	-5.99695e-07	0.000342729	9.53846e-05	4.84277e-05	0.000106974	26.9173	-1.33834e-09
707.509	8884.62	5204.45	10296.7	-30.361	40.8394	-0.0670839	-3.72816e-06	0.0432228	0.0110424	1	13	0.134759	1.30876e-05	-6.01509e-07	0.000422931	8.37992e-05	4.9088e-05	9.71182e-05	30.361	4.49636e-09
501.444	9545.36	6499.76	11548.2	-34.2523	43.1112	-0.0670928	9.24092e-08	0.0488315	0.0154692	1	13	0.134538	1.16501e-05	-5.9175e-07	0.000262526	7.15754e-05	4.87382e-05	8.65936e-05	34.2523	8.37107e-09
354.66	10369.5	8219.37	13231.9	-38.4021	45.3909	-0.0670963	-3.94756e-07	0.0545971	0.0210669	1	13	0.134361	1.01543e-05	-6.08648e-07	-5.82835e-05	5.92257e-05	4.69453e-05	7.55748e-05	38.4021	-1.87245e-09
251.044	11410.6	10479.1	15492.4	-42.5634	47.6599	-0.0670896	-1.36907e-06	0.0604986	0.0276796	1	13	0.134231	8.66436e-06	-5.96132e-07	0.000182324	4.75415e-05	4.36606e-05	6.4548e-05	42.5634	9.18834e-09
177.781	12730.4	13427.2	18502.8	-46.5258	49.9522	-0.0670937	-1.98877e-06	0.0666729	0.0351112	1	13	0.134142	7.24983e-06	-5.95787e-07	-0.000298891	3.71851e-05	3.92203e-05	5.4046e-05	46.5258	-6.03572e-09
125.846	14437.8	17276.9	22515.3	-50.1155	52.2274	-0.0670983	-1.4345e-06	0.0732009	0.0431013	1	13	0.134081	5.95509e-06	-5.9342e-07	-0.000379094	2.84803e-05	3.40807e-05	4.44142e-05	50.1155	4.84082e-09
89.116	16694.6	22288.7	27847.7	-53.1661	54.7528	-0.0670942	-3.78762e-07	0.0801272	0.0513298	1	14	0.134575	4.83255e-06	-5.85818e-07	0.000663539	2.15277e-05	2.87412e-05	3.59096e-05	53.1661	1.8035e-09
63.0823	19718.6	28770.8	34879.5	-55.5744	57.0488	-0.0670875	-5.93423e-07	0.0876922	0.0596655	1	14	0.134321	3.85101e-06	-5.87857e-07	0.000182324	1.62082e-05	2.36489e-05	2.86701e-05	55.5744	-3.57403e-10
44.6712	23817.9	37055.9	44050.4	-57.2688	59.3142	-0.0670892	-2.5429e-07	0.0961468	0.0680379	1	14	0.134172	3.04588e-06	-5.83701e-07	0.000182324	1.22745e-05	1.90967e-05	2.27013e-05	57.2688	-3.7392e-10
31.6296	29376.5	47518.8	55866	-58.2753	61.5515	-0.0670914	-1.91985e-07	0.105892	0.076612	1	14	0.134082	2.40007e-06	-5.81614e-07	0.000422931	9.41249e-06	1.52254e-05	1.79e-05	58.2753	2.61598e-09
22.3854	36868	60495.2	70844.4	-58.6403	63.7994	-0.0670876	-1.6754e-07	0.117526	0.0856971	1	14	0.134038	1.892e-06	-5.82999e-07	2.1919e-05	7.3458e-06	1.20534e-05	1.41154e-05	58.6403	-2.75765e-09
15.8576	46667.1	76299.6	89439.6	-58.5488	66.1279	-0.0670916	-3.39078e-08	0.131541	0.0957295	1	14	0.134014	1.49837e-06	-5.783e-07	0.000182324	5.83379e-06	9.53811e-06	1.11807e-05	58.5488	7.61046e-09
11.2249	59054.2	95402.1	112201	-58.2424	68.5049	-0.0670912	-9.60774e-08	0.148621	0.10745	1	14	0.133997	1.19426e-06	-5.80004e-07	-0.000218689	4.69095e-06	7.57824e-06	8.91261e-06	58.2424	6.06734e-09
7.93953	74172.5	118787	140043	-58.0187	71.0487	-0.0670846	-5.98629e-07	0.168754	0.121415	1	14	0.133989	9.5677e-07	-5.80375e-07	0.000342729	3.782e-06	6.05688e-06	7.14068e-06	58.0187	3.59826e-09
5.6205	92287.3	147737	174193	-58.0081	72.9137	-0.067095	-1.19749e-06	0.191671	0.137871	1	14	0.13398	7.69148e-07	-5.89568e-07	0.000182324	3.04146e-06	4.86887e-06	5.74077e-06	58.0081	-3.57222e-09
3.97785	113541	184637	216754	-58.4108	75.4492	-0.0670779	-1.24024e-06	0.216697	0.157237	1	14	0.133975	6.18095e-07	-5.80112e-07	-0.000218689	2.41668e-06	3.92991e-06	4.61352e-06	58.4108	-2.51018e-09
2.81836	139024	231490	270029	-59.0126	78.9477	-0.067082	-2.37433e-07	0.243944	0.179282	1	14	0.133977	4.96158e-07	-5.78808e-07	-0.000379094	1.90665e-06	3.17477e-06	3.70331e-06	59.0126	2.94772e-09
1.99706	170566	292808	338865	-59.7784	83.8096	-0.067075	-2.58711e-07	0.272173	0.203216	1	14	0.133974	3.9536e-07	-5.85834e-07	0.000182324	1.48539e-06	2.54994e-06	2.95103e-06	59.7784	-8.19888e-09
1.41224	210443	372541	427870	-60.5385	90.6162	-0.0670801	-6.04088e-08	0.302509	0.229331	1	14	0.133977	3.13124e-07	-5.94213e-07	-5.82835e-05	1.1495e-06	2.03493e-06	2.33716e-06	60.5385	-1.74735e-08
1.00006	261063	473953	541097	-61.1531	100.161	-0.0670706	2.62328e-09	0.335782	0.257619	1	14	0.133973	2.47596e-07	-5.77801e-07	0.000262526	8.91653e-07	1.61877e-06	1.8481e-06	61.1531	1.53965e-08