Folder: EIS_Manager/data (part 4)

File: DE_65_10_60.mpt
EC-Lab ASCII FILE
Nb header lines : 60

Potentio Electrochemical Impedance Spectroscopy

Run on channel : 2 (SN 20919)
User :
CE vs. WE compliance from -10 V to 10 V
Electrode connection : standard
Ewe ctrl range : min = -10.00 V, max = 10.00 V
Acquisition started on : 02/20/2020 14:48:44
Technique started on : 02/20/2020 14:48:45
Saved on :
	File : DE_65_10_60.mpr
	Directory : P:\Chemistry\Data\VMP3\Kyler\DOE\DE_65\60C\
	Host : 10.0.4.64
Device : VMP3 (SN 1432)
Address : USB
EC-Lab for windows v11.33 (software)
Internet server v11.32 (firmware)
Command interpretor v11.33 (firmware)
Electrode material :
Initial state :
Electrolyte :
Comments :
Electrode surface area : 0.001 cm²
Characteristic mass : 0.001 g
Equivalent Weight : 0.000 g/eq.
Density : 0.000 g/cm3
Record Analogic IN 1
Cycle Definition : Charge/Discharge alternance
Mode                Single sine
E (V)               0.0000
vs.                 Eoc
tE (h:m:s)          0:00:0.0000
record              0
dI                  1.000
unit dI             mA
dt (s)              0.000
fi                  1.000
unit fi             MHz
ff                  1.000
unit ff             Hz
Nd                  20
Points              per decade
spacing             Logarithmic
Va (mV)             128.0
pw                  0.50
Na                  3
corr                0
E range min (V)     -10.000
E range max (V)     10.000
I Range             Auto
Bandwidth           5
nc cycles           0
goto Ns'            0
nr cycles           0
inc. cycle          1

freq/Hz	Re(Z)/Ohm	-Im(Z)/Ohm	|Z|/Ohm	Phase(Z)/deg	time/s	<Ewe>/V	<I>/mA	Cs/µF	Cp/µF	cycle number	I Range	|Ewe|/V	|I|/A	(Q-Qo)/mA.h	Analog IN 1/V	Re(Y)/Ohm-1	Im(Y)/Ohm-1	|Y|/Ohm-1	Phase(Y)/deg	dq/mA.h
1.00002e+06	110.579	63.3793	127.455	-29.8194	1.95049	-0.00272424	-0.00067157	0.0025111	0.000620935	1	11	0.00214899	1.68608e-05	-1.37266e-07	-0.000296759	0.00680709	0.00390152	0.00784591	29.8194	-1.37266e-07
707950	127.58	58.1733	140.217	-24.5117	3.73748	-0.0016448	-0.000719331	0.00386451	0.000665179	1	11	0.00839469	5.98692e-05	-3.17578e-07	0.000424868	0.00648904	0.00295883	0.00713179	24.5117	4.34223e-08
501206	144.28	55.1938	154.477	-20.9341	5.52648	-0.0010366	-0.000732896	0.00575325	0.000734455	1	11	0.0217431	0.000140753	-4.75282e-07	2.39641e-05	0.00604615	0.00231292	0.00647345	20.9341	1.95258e-07
354810	158.245	51.3562	166.37	-17.9801	7.31347	-0.000804706	-0.000614137	0.00873437	0.000832273	1	11	0.042887	0.00025778	1.27566e-07	2.39641e-05	0.00571715	0.00185542	0.00601069	17.9801	3.58945e-07
251188	169.251	47.1148	175.686	-15.5557	9.09849	-0.000852225	-0.000711702	0.0134482	0.000967171	1	11	0.0730643	0.000415879	2.58101e-07	-5.62167e-05	0.00548347	0.00152645	0.00569196	15.5557	-1.48415e-07
177832	178.029	43.3003	183.219	-13.6701	10.8865	-0.000858078	-0.000733257	0.020669	0.00115441	1	11	0.113202	0.000617849	-2.23792e-06	-0.000537302	0.00530333	0.00128988	0.00545794	13.6701	-1.04228e-06
125909	185.274	40.745	189.702	-12.4029	12.5385	-0.000785968	-0.000701844	0.0310233	0.00143118	1	11	0.129767	0.00068406	-3.93047e-06	2.39641e-05	0.00514841	0.00113222	0.00527144	12.4029	-7.86012e-07
89129.3	191.628	39.8353	195.725	-11.7433	14.3255	-0.000737963	-0.00069218	0.0448262	0.00185685	1	11	0.129585	0.00066208	-3.27601e-06	-0.000537302	0.00500228	0.00103986	0.00510922	11.7433	9.73021e-07
63093.8	197.616	40.7665	201.777	-11.6561	16.1115	-0.000693892	-0.000631225	0.0618771	0.00252576	1	11	0.129377	0.000641187	-3.51071e-06	-5.62167e-05	0.00485376	0.00100129	0.00495596	11.6561	-4.32778e-07
44666.7	203.869	43.6778	208.496	-12.0925	17.6265	-0.000693519	-0.000703703	0.0815783	0.00358016	1	11	0.139403	0.000668615	-5.18367e-06	0.000264507	0.00468983	0.00100477	0.00479626	12.0925	-6.30681e-07
31621.1	210.909	48.5982	216.436	-12.9757	19.2765	-0.00066343	-0.00058142	0.103567	0.0052216	1	11	0.129522	0.000598432	-6.80076e-06	-0.000136398	0.00450233	0.00103744	0.00462031	12.9757	-1.38404e-06
22389	219.219	55.4975	226.134	-14.2065	20.7915	-0.000668427	-0.000678619	0.128089	0.00771481	1	11	0.129456	0.000572472	-6.02553e-06	-0.000296759	0.00428691	0.00108528	0.00442215	14.2065	5.2244e-07
15847.7	229.316	64.3208	238.166	-15.6683	22.1715	-0.000663393	-0.000690142	0.156136	0.011388	1	11	0.136503	0.000573142	-6.59612e-06	-0.000136398	0.00404274	0.00113395	0.00419876	15.6683	-1.97995e-07
11217.7	241.474	74.9261	252.832	-17.2384	23.5495	-0.000658285	-0.000633644	0.189358	0.0166298	1	11	0.139936	0.000553475	-6.63714e-06	2.39641e-05	0.00377754	0.00117212	0.0039552	17.2384	9.78229e-09
7944	255.872	87.31	270.358	-18.841	25.159	-0.000633546	-0.000682522	0.229465	0.0239314	1	11	0.129582	0.0004793	-6.24902e-06	-0.00037694	0.00350062	0.0011945	0.0036988	18.841	-4.85058e-07
5621.06	272.481	101.657	290.826	-20.4596	27.0713	-0.000614587	-0.000806669	0.278525	0.0340309	1	11	0.130002	0.000447008	-6.63426e-06	2.39641e-05	0.00322158	0.00120191	0.00343848	20.4596	-3.27594e-07
3981.27	291.202	118.432	314.364	-22.1316	29.3517	-0.000618595	-0.000824324	0.337543	0.0479073	1	11	0.130036	0.00041365	-7.96991e-06	-0.000296759	0.00294665	0.00119841	0.00318103	22.1316	-2.73591e-07
2817.3	312.189	138.608	341.576	-23.9407	31.6319	-0.000607018	-0.000784926	0.407567	0.0671124	1	11	0.129944	0.000380425	-8.71206e-06	0.000264507	0.00267574	0.001188	0.00292761	23.9407	1.30876e-08
1995.64	335.496	163.368	373.157	-25.9635	34.1627	-0.000624952	-0.00010804	0.48817	0.0935666	1	12	0.133981	0.000359045	-8.52923e-06	-0.000457121	0.00240937	0.00117323	0.00267983	25.9635	2.40995e-07
1411.84	361.451	194.556	410.486	-28.292	36.4442	-0.000622528	-0.000105616	0.579417	0.130162	1	12	0.132841	0.000323618	-9.06741e-06	-0.000296759	0.00214513	0.00115464	0.00243614	28.292	-1.3193e-07
1000.32	390.343	234.503	455.367	-30.9958	38.7217	-0.000624318	-0.000109981	0.678474	0.179931	1	12	0.131885	0.000289623	-9.39365e-06	-0.000136398	0.00188245	0.0011309	0.00219603	30.9958	-1.76246e-07
707.509	423.526	287.03	511.625	-34.1261	41.0014	-0.000617663	-8.72309e-05	0.783719	0.246667	1	12	0.131136	0.000256313	-9.63299e-06	0.000104145	0.00161799	0.00109654	0.00195456	34.1261	-2.33888e-07
501.444	462.469	355.551	583.347	-37.5534	43.2732	-0.000621298	-0.000105601	0.892681	0.331623	1	12	0.130585	0.000223854	-9.6755e-06	0.000184326	0.00135903	0.00104484	0.00171425	37.5534	-1.7812e-07
354.66	510.303	445.573	677.454	-41.126	45.553	-0.000625437	-0.000128522	1.00714	0.43568	1	12	0.130172	0.000192149	-9.40258e-06	-0.000136398	0.00111191	0.000970866	0.00147611	41.126	8.58675e-08
251.044	569.529	562.583	800.539	-44.6485	47.8219	-0.000624113	-9.58301e-05	1.12689	0.556533	1	12	0.129893	0.000162257	-9.69815e-06	0.000264507	0.00088869	0.000877852	0.00124916	44.6485	-1.71945e-07
177.781	643.739	713.459	960.949	-47.9407	50.1142	-0.000624262	-6.42578e-05	1.25477	0.691675	1	12	0.129706	0.000134977	-1.00032e-05	0.000104145	0.000697122	0.000772624	0.00104064	47.9407	-1.07206e-09
125.846	736.958	907.778	1169.26	-50.9294	52.3894	-0.00061248	-0.000105716	1.39316	0.83973	1	12	0.129571	0.000110815	-1.00799e-05	-5.62167e-05	0.00053904	0.000663984	0.000855242	50.9294	-8.86464e-08
89.116	854.795	1158.43	1439.66	-53.5767	54.6618	-0.000618595	-9.62798e-05	1.54169	0.998187	1	12	0.129495	8.99479e-05	-1.0255e-05	0.000505049	0.000412421	0.000558917	0.000694607	53.5767	6.13754e-09
63.0823	1003.67	1483.26	1790.93	-55.9152	56.9578	-0.000617812	-9.47696e-05	1.70096	1.16674	1	12	0.129451	7.22816e-05	-1.03457e-05	-0.000136398	0.000312921	0.000462446	0.000558369	55.9152	-4.47929e-08
44.6712	1193.72	1905.55	2248.57	-57.9352	59.2222	-0.000620459	-0.000100123	1.8697	1.34276	1	12	0.129422	5.75573e-05	-1.03133e-05	2.39641e-05	0.000236095	0.000376882	0.000444726	57.9352	-3.13329e-08
31.6296	1444.2	2459.18	2851.89	-59.5756	61.7075	-0.000621373	-2.74236e-05	2.04615	1.52143	1	13	0.129609	4.54466e-05	-1.02624e-05	0.000264507	0.000177567	0.00030236	0.000350644	59.5756	2.39936e-08
22.3854	1784.63	3182.48	3648.71	-60.7178	63.9554	-0.000617812	-2.4476e-05	2.23403	1.69958	1	13	0.129505	3.54934e-05	-1.03208e-05	-0.000136398	0.000134051	0.000239049	0.000274069	60.7178	7.17947e-08
15.8576	2265.99	4116.41	4698.88	-61.1682	66.284	-0.000627823	-3.07389e-05	2.43818	1.87117	1	13	0.129454	2.75499e-05	-1.03427e-05	0.000344687	0.000102629	0.000186436	0.000212817	61.1682	2.96142e-08
11.2249	2969.4	5306.9	6081.16	-60.7714	68.6609	-0.000626835	-2.77877e-05	2.67177	2.03473	1	13	0.129418	2.12818e-05	-1.02738e-05	-0.000136398	8.02963e-05	0.000143505	0.000164442	60.7714	1.18014e-07
7.93953	4017.17	6768.59	7870.92	-59.3108	71.2047	-0.000618707	-3.14365e-05	2.9616	2.19014	1	13	0.129402	1.64405e-05	-1.04527e-05	0.000264507	6.48438e-05	0.000109256	0.00012705	59.3108	-1.33342e-07
5.6205	5589.51	8462.33	10141.7	-56.5546	73.0696	-0.000626611	-3.48859e-06	3.34622	2.32978	1	13	0.12939	1.27583e-05	-1.04416e-05	0.000184326	5.43443e-05	8.22755e-05	9.8603e-05	56.5546	4.72943e-08
3.97785	7764	10242.4	12852.5	-52.837	75.6052	-0.000609591	-4.37989e-05	3.90633	2.48084	1	13	0.129385	1.00669e-05	-1.04959e-05	-0.000216578	4.70013e-05	6.20051e-05	7.78059e-05	52.837	-1.79216e-07
2.81836	10708.8	11839.5	15964.1	-47.8707	79.1027	-0.000606437	-3.81541e-05	4.7697	2.62343	1	13	0.129384	8.10471e-06	-1.05272e-05	2.39641e-05	4.20198e-05	4.64564e-05	6.26407e-05	47.8707	-2.22406e-07
1.99706	14275.3	12878.3	19225.9	-42.0547	83.9647	-0.000608943	-2.79433e-05	6.1883	2.7766	1	13	0.129385	6.72971e-06	-1.06253e-05	0.000184326	3.86201e-05	3.48405e-05	5.20132e-05	42.0547	-2.65336e-07
1.41224	18207.5	13052.1	22402.4	-35.6349	90.7711	-0.000607975	-2.67507e-05	8.63442	2.9309	1	13	0.129383	5.77539e-06	-1.04757e-05	2.39641e-05	3.62794e-05	2.60069e-05	4.4638e-05	35.6349	1.42883e-07
1.00006	21991.8	12417.3	25255.3	-29.4505	100.315	-0.000600881	-2.58806e-05	12.8164	3.09824	1	13	0.129383	5.123e-06	-1.04387e-05	0.000104145	3.44792e-05	1.94681e-05	3.95957e-05	29.4505	2.19207e-07

File: DE_65_11_60.mpt
EC-Lab ASCII FILE
Nb header lines : 60

Potentio Electrochemical Impedance Spectroscopy

Run on channel : 3 (SN 20921)
User :
CE vs. WE compliance from -10 V to 10 V
Electrode connection : standard
Ewe ctrl range : min = -10.00 V, max = 10.00 V
Acquisition started on : 02/20/2020 14:48:52
Technique started on : 02/20/2020 14:48:53
Saved on :
	File : DE_65_11_60.mpr
	Directory : P:\Chemistry\Data\VMP3\Kyler\DOE\DE_65\60C\
	Host : 10.0.4.64
Device : VMP3 (SN 1432)
Address : USB
EC-Lab for windows v11.33 (software)
Internet server v11.32 (firmware)
Command interpretor v11.33 (firmware)
Electrode material :
Initial state :
Electrolyte :
Comments :
Electrode surface area : 0.001 cm²
Characteristic mass : 0.001 g
Equivalent Weight : 0.000 g/eq.
Density : 0.000 g/cm3
Record Analogic IN 1
Cycle Definition : Charge/Discharge alternance
Mode                Single sine
E (V)               0.0000
vs.                 Eoc
tE (h:m:s)          0:00:0.0000
record              0
dI                  1.000
unit dI             mA
dt (s)              0.000
fi                  1.000
unit fi             MHz
ff                  1.000
unit ff             Hz
Nd                  20
Points              per decade
spacing             Logarithmic
Va (mV)             128.0
pw                  0.50
Na                  3
corr                0
E range min (V)     -10.000
E range max (V)     10.000
I Range             Auto
Bandwidth           5
nc cycles           0
goto Ns'            0
nr cycles           0
inc. cycle          1

freq/Hz	Re(Z)/Ohm	-Im(Z)/Ohm	|Z|/Ohm	Phase(Z)/deg	time/s	<Ewe>/V	<I>/mA	Cs/µF	Cp/µF	cycle number	I Range	|Ewe|/V	|I|/A	(Q-Qo)/mA.h	Analog IN 1/V	Re(Y)/Ohm-1	Im(Y)/Ohm-1	|Y|/Ohm-1	Phase(Y)/deg	dq/mA.h
1.00002e+06	101.054	49.8048	112.661	-26.2365	1.94948	-0.00270529	-0.00506085	0.00319552	0.000624509	1	11	0.00373791	3.31785e-05	-1.47607e-06	-0.000237822	0.00796175	0.00392398	0.00887621	26.2365	-1.47607e-06
707950	113.419	44.132	121.703	-21.2613	3.73549	-0.00162182	-0.00281991	0.00509407	0.000669841	1	11	0.0103883	8.53578e-05	-3.1605e-06	-0.000157655	0.0076575	0.00297957	0.00821676	21.2613	-4.63427e-07
501206	125.647	40.8613	132.124	-18.0149	5.52448	-0.000985438	-0.00159665	0.00777125	0.000743278	1	11	0.0229647	0.000173811	-4.04949e-06	-0.000398155	0.00719759	0.00234071	0.00756863	18.0149	-1.20069e-07
354810	135.595	37.6285	140.719	-15.5097	7.31148	-0.000801386	-0.0013262	0.0119208	0.000852382	1	11	0.0420979	0.000299162	-4.86356e-06	-0.000237822	0.00684757	0.00190025	0.00710635	15.5097	-4.98993e-07
251188	143.57	34.1893	147.585	-13.3947	9.09847	-0.00080543	-0.0013193	0.0185324	0.00099455	1	11	0.0694571	0.000470624	-5.30303e-06	-0.000237822	0.00659143	0.00156966	0.00677575	13.3947	3.55804e-07
177832	150.026	31.0982	153.216	-11.7107	10.8865	-0.000779168	-0.00125144	0.028779	0.0011856	1	11	0.106327	0.000693966	-5.65032e-06	-0.000157655	0.00639089	0.00132473	0.00652675	11.7107	8.90502e-08
125909	155.542	28.6783	158.163	-10.4467	12.4015	-0.000679565	-0.00100969	0.0440768	0.00144912	1	11	0.129976	0.000821783	-7.63212e-06	-0.000558489	0.00621777	0.00114641	0.00632258	10.4467	-7.49132e-07
89129.3	160.455	27.0438	162.718	-9.56699	14.1885	-0.000584361	-0.000826103	0.0660286	0.00182389	1	11	0.129616	0.000796571	-5.78046e-06	-7.74882e-05	0.00606014	0.0010214	0.00614561	9.56699	1.80078e-06
63093.8	164.96	26.2289	167.032	-9.03451	15.9755	-0.00051691	-0.000716136	0.096173	0.00237145	1	11	0.129307	0.000774147	-5.25527e-06	-7.74882e-05	0.00591261	0.000940116	0.00598688	9.03451	-2.49454e-07
44666.7	169.333	26.2595	171.357	-8.81499	17.4905	-0.000502446	-0.000719117	0.135691	0.00318654	1	11	0.139886	0.000816341	-3.9484e-06	-0.000478322	0.00576684	0.000894299	0.00583577	8.81499	-6.24439e-07
31621.1	173.832	27.2054	175.948	-8.8949	19.1405	-0.000473464	-0.000683893	0.185006	0.00442315	1	11	0.129636	0.000736788	-2.80997e-06	8.28454e-05	0.00561516	0.000878798	0.00568351	8.8949	1.56033e-06
22389	178.678	29.0074	181.017	-9.2212	20.6565	-0.000464667	-0.000633755	0.245062	0.00629293	1	11	0.129652	0.000716242	-2.29987e-06	-0.000718822	0.00545294	0.000885254	0.00552433	9.2212	4.32917e-07
15847.7	184.139	31.5797	186.827	-9.73154	22.0355	-0.000461442	-0.000602069	0.318014	0.00908623	1	11	0.1379	0.000738115	-7.78213e-07	-0.000237822	0.00527553	0.000904752	0.00535255	9.73154	5.1437e-07
11217.7	190.45	34.8462	193.612	-10.3686	23.5515	-0.000445693	-0.000586786	0.407155	0.0131889	1	11	0.130424	0.000673636	-1.04865e-06	-0.000558489	0.00508063	0.00092959	0.00516497	10.3686	-1.69219e-07
7944	197.719	38.5557	201.443	-11.0343	25.02	-0.000430205	-0.000493035	0.519628	0.0190355	1	11	0.132314	0.000656832	-4.98153e-07	0.000243179	0.0048724	0.000950128	0.00496417	11.0343	1.80797e-07
5621.06	205.949	42.5821	210.305	-11.6819	26.9313	-0.000406125	-0.000611206	0.664929	0.0272601	1	11	0.133104	0.00063291	-1.07323e-06	8.28454e-05	0.0046565	0.000962777	0.00475499	11.6819	-5.49432e-07
3981.27	214.994	46.8293	220.035	-12.2881	29.2117	-0.000415537	-0.00068595	0.853651	0.0386663	1	11	0.133356	0.000606067	-1.55737e-06	8.28454e-05	0.00444061	0.00096724	0.00454473	12.2881	3.91446e-07
2817.3	224.856	51.4741	230.672	-12.894	31.4919	-0.000404857	-0.000620901	1.09749	0.0546494	1	11	0.133394	0.000578283	-1.10425e-06	-7.74882e-05	0.00422584	0.000967382	0.00433515	12.894	3.29964e-07
1995.64	235.575	56.7463	242.313	-13.5436	33.7717	-0.000391997	-0.00063283	1.4054	0.0770764	1	11	0.133352	0.000550328	-1.66713e-06	-0.000237822	0.00401213	0.000966459	0.00412689	13.5436	3.28978e-07
1411.84	247.658	62.9748	255.539	-14.2669	36.0532	-0.000405286	-0.000632831	1.79006	0.108714	1	11	0.133285	0.000521584	-3.00598e-06	-0.000237822	0.0037926	0.000964386	0.00391329	14.2669	-4.01258e-07
1000.32	261.355	70.0957	270.591	-15.0135	38.3307	-0.000401558	-0.000672532	2.26981	0.152316	1	11	0.133222	0.000492335	-4.01803e-06	-0.000558489	0.00356946	0.000957335	0.00369561	15.0135	-4.99476e-07
707.509	277.624	77.6863	288.288	-15.633	40.6115	-0.000409051	-0.000588657	2.89563	0.21027	1	11	0.133169	0.000461931	-4.85279e-06	-7.74882e-05	0.00334043	0.000934739	0.00346875	15.633	-5.7701e-07
501.444	296.541	84.9218	308.461	-15.9804	43.1332	-0.000409964	-0.000566204	3.73748	0.28328	1	12	0.134015	0.000434463	-5.72567e-06	8.28454e-05	0.00311662	0.000892522	0.0032419	15.9804	1.86898e-07
354.66	318.248	90.8136	330.952	-15.9263	45.4129	-0.000405826	-0.000587347	4.94149	0.372074	1	12	0.133697	0.000403976	-6.55293e-06	0.000323346	0.00290561	0.000829128	0.00302159	15.9263	-9.72404e-08
251.044	341.906	94.4734	354.718	-15.4462	47.6819	-0.000410095	-0.000560686	6.71058	0.476007	1	12	0.133465	0.000376256	-6.39011e-06	0.000243179	0.00271732	0.000750833	0.00281914	15.4462	2.41814e-07
177.781	366.712	95.2749	378.887	-14.5639	49.9742	-0.000407317	-0.00051128	9.39627	0.594146	1	12	0.1333	0.000351821	-7.0737e-06	0.000403512	0.0025545	0.000663681	0.00263931	14.5639	-4.64601e-07
125.846	391.589	92.8009	402.435	-13.3323	52.2494	-0.000413263	-0.000573235	13.6279	0.724675	1	12	0.133195	0.000330972	-7.2016e-06	-0.000398155	0.00241791	0.000573009	0.00248488	13.3323	1.57337e-07
89.116	415.284	87.0583	424.311	-11.8398	54.5217	-0.000411884	-0.000575342	20.5142	0.863588	1	12	0.133129	0.000313753	-7.68832e-06	2.67859e-06	0.00230662	0.000483551	0.00235676	11.8398	-4.11029e-07
63.0823	436.443	78.498	443.446	-10.1961	56.8178	-0.000410076	-0.000567474	32.1406	1.00714	1	12	0.133088	0.000300122	-7.9382e-06	-0.000157655	0.00221945	0.000399187	0.00225507	10.1961	-2.37668e-07
44.6712	454.06	68.1563	459.147	-8.5366	59.0822	-0.000405621	-0.0005487	52.2741	1.15185	1	12	0.133061	0.000289801	-8.41796e-06	0.000163012	0.00215382	0.000323298	0.00217795	8.5366	-2.4258e-07
31.6296	468.008	57.1964	471.49	-6.96771	61.3195	-0.000409312	-0.000558041	87.9749	1.29465	1	12	0.133044	0.000282177	-9.09657e-06	-0.000157655	0.00210527	0.000257291	0.00212094	6.96771	-2.07921e-07
22.3854	478.461	46.625	480.727	-5.56578	63.5674	-0.000414009	-0.000585466	152.488	1.43442	1	12	0.133039	0.000276745	-9.28186e-06	-0.000478322	0.00207038	0.000201754	0.00208018	5.56578	-8.7078e-07
15.8576	486.018	37.2128	487.44	-4.37841	65.8959	-0.000420047	-0.000597361	269.706	1.57193	1	12	0.133032	0.000272919	-9.32012e-06	0.000163012	0.00204555	0.000156621	0.00205153	4.37841	1.51294e-08
11.2249	491.355	29.1106	492.216	-3.39056	68.2729	-0.000417177	-0.000581495	487.066	1.70364	1	12	0.133032	0.000270271	-1.09136e-05	8.28454e-05	0.00202807	0.000120154	0.00203163	3.39056	-1.29285e-06
7.93953	494.931	22.4742	495.441	-2.59994	70.8157	-0.000410393	-0.000576471	891.952	1.83537	1	12	0.133028	0.000268505	-8.72465e-06	0.000243179	0.00201633	9.15587e-05	0.0020184	2.59994	2.52463e-06
5.6205	497.377	17.1402	497.672	-1.97371	72.6806	-0.000420029	-0.000626502	1652.07	1.95964	1	12	0.133032	0.000267309	-1.09724e-05	-0.000638656	0.00200816	6.9204e-05	0.00200936	1.97371	-1.76126e-06
3.97785	498.934	12.9629	499.102	-1.48828	75.2162	-0.000420877	-0.000600606	3086.52	2.08207	1	12	0.133026	0.000266531	-8.75271e-06	-0.000478322	0.00200292	5.20383e-05	0.0020036	1.48828	4.33206e-06
2.81836	499.927	9.80012	500.023	-1.12303	78.7146	-0.000403711	-0.000558582	5762.25	2.21348	1	12	0.133027	0.000266042	-8.73414e-06	-0.000237822	0.00199952	3.91969e-05	0.00199991	1.12303	7.14349e-06
1.99706	500.36	7.37596	500.414	-0.844553	83.5777	-0.000404601	-0.000543798	10804.6	2.3474	1	12	0.133029	0.000265837	-6.83589e-06	-0.000157655	0.00199813	2.9455e-05	0.00199834	0.844553	9.40127e-06
1.41224	500.417	5.55404	500.448	-0.63589	90.3841	-0.000398809	-0.000532651	20291	2.49922	1	12	0.133029	0.000265821	-1.5651e-05	-0.000398155	0.00199809	2.21764e-05	0.00199821	0.63589	-6.87354e-06
1.00006	500.257	4.1524	500.275	-0.475575	99.9292	-0.000395669	-0.000519185	38325.9	2.64043	1	12	0.133029	0.000265912	-2.51431e-05	-7.74882e-05	0.00199883	1.65914e-05	0.0019989	0.475575	-1.63071e-05