Folder: EIS_Manager/utils (part 2)

File: DE_206_3_30.mpt
EC-Lab ASCII FILE
Nb header lines : 60

Potentio Electrochemical Impedance Spectroscopy

Run on channel : 3 (SN 20921)
User :
CE vs. WE compliance from -10 V to 10 V
Electrode connection : standard
Ewe ctrl range : min = -10.00 V, max = 10.00 V
Acquisition started on : 12/03/2020 16:54:21
Technique started on : 12/03/2020 16:54:22
Saved on :
	File : DE_206_3_30.mpr
	Directory : P:\Chemistry\Data\VMP3\Kyler\DOE\DE_206\
	Host : 10.0.4.64
Device : VMP3 (SN 1432)
Address : USB
EC-Lab for windows v11.33 (software)
Internet server v11.32 (firmware)
Command interpretor v11.33 (firmware)
Electrode material :
Initial state :
Electrolyte :
Comments :
Electrode surface area : 0.001 cm²
Characteristic mass : 0.001 g
Equivalent Weight : 0.000 g/eq.
Density : 0.000 g/cm3
Record Analogic IN 1
Cycle Definition : Charge/Discharge alternance
Mode                Single sine
E (V)               0.0000
vs.                 Eoc
tE (h:m:s)          0:00:0.0000
record              0
dI                  1.000
unit dI             mA
dt (s)              0.000
fi                  1.000
unit fi             MHz
ff                  1.000
unit ff             Hz
Nd                  20
Points              per decade
spacing             Logarithmic
Va (mV)             128.0
pw                  0.50
Na                  3
corr                0
E range min (V)     -10.000
E range max (V)     10.000
I Range             Auto
Bandwidth           5
nc cycles           0
goto Ns'            0
nr cycles           0
inc. cycle          1

freq/Hz	Re(Z)/Ohm	-Im(Z)/Ohm	|Z|/Ohm	Phase(Z)/deg	time/s	<Ewe>/V	<I>/mA	Cs/µF	Cp/µF	cycle number	I Range	|Ewe|/V	|I|/A	(Q-Qo)/mA.h	Analog IN 1/V	Re(Y)/Ohm-1	Im(Y)/Ohm-1	|Y|/Ohm-1	Phase(Y)/deg	dq/mA.h
1.00002e+06	112.952	64.755	130.197	-29.8256	1.94949	3.31078	-0.00233195	0.00245775	0.000607971	1	11	0.00409333	3.14395e-05	-8.24353e-07	-0.000237822	0.00666331	0.00382007	0.00768066	29.8256	-8.24353e-07
707950	129.652	61.682	143.577	-25.4427	3.73649	3.31188	-0.000891175	0.00364468	0.000672675	1	11	0.0116282	8.09891e-05	-1.31461e-06	2.67859e-06	0.00628941	0.00299218	0.00696489	25.4427	-7.81314e-08
501206	147.072	60.6087	159.071	-22.3966	5.52349	3.31253	-0.000261369	0.00523925	0.000760598	1	11	0.0258032	0.000162211	-1.27921e-06	-7.74882e-05	0.00581229	0.00239525	0.00628649	22.3966	-1.08981e-07
354810	162.696	58.4943	172.892	-19.7751	7.30849	3.31272	-0.000225767	0.00766851	0.000877785	1	11	0.0471545	0.00027274	-1.47168e-06	2.67859e-06	0.00544287	0.00195688	0.00578396	19.7751	-1.98786e-07
251188	176.291	55.4061	184.793	-17.4473	9.09448	3.31272	-0.000250738	0.0114357	0.00102804	1	11	0.0773452	0.000418551	-2.18422e-06	0.000163012	0.0051625	0.00162251	0.00541146	17.4473	-4.2267e-07
177832	188.122	52.1208	195.209	-15.4858	10.7455	3.31276	-0.000222218	0.0171712	0.00122411	1	11	0.117613	0.000602499	-2.17956e-06	-7.74882e-05	0.00493674	0.00136776	0.00512271	15.4858	3.57518e-07
125909	198.602	49.264	204.621	-13.9312	12.3995	3.31291	-8.317e-05	0.0256586	0.00148728	1	11	0.129689	0.000633802	-2.57136e-06	-0.000317989	0.00474333	0.0011766	0.00488709	13.9312	-3.51531e-07
89129.3	208.057	47.0977	213.321	-12.755	14.1855	3.313	-3.56437e-05	0.037914	0.00184813	1	11	0.129462	0.00060689	-2.39263e-06	0.000163012	0.00457209	0.00103498	0.00468777	12.755	1.01161e-06
63093.8	216.724	45.8637	221.524	-11.9488	15.8365	3.31304	8.7185e-06	0.0550002	0.00235756	1	11	0.14075	0.000635374	-2.27961e-06	-0.000398155	0.00441638	0.000934607	0.00451419	11.9488	-4.42542e-07
44666.7	224.962	45.8428	229.585	-11.5181	17.4855	3.31311	2.51187e-05	0.0777257	0.00309899	1	11	0.130066	0.000566524	-3.5962e-06	0.000163012	0.00426797	0.000869728	0.00435568	11.5181	-6.88857e-07
31621.1	233.122	47.2094	237.854	-11.4481	19.0005	3.31312	4.45027e-05	0.106614	0.00420001	1	11	0.135399	0.000569254	-2.82727e-06	-7.74882e-05	0.00412062	0.000834465	0.00420426	11.4481	-2.25885e-07
22389	241.661	50.0736	246.794	-11.7064	20.5145	3.31312	2.32538e-05	0.141963	0.0058442	1	11	0.132931	0.000538631	-2.51468e-06	-0.000157655	0.00396768	0.000822129	0.00405196	11.7064	5.00799e-08
15847.7	251.019	54.4722	256.861	-12.2436	21.8935	3.31313	3.92834e-05	0.184365	0.0082915	1	11	0.139741	0.000544034	-3.6562e-06	2.67859e-06	0.00380461	0.000825617	0.00389316	12.2436	-4.6818e-07
11217.7	261.74	60.3599	268.61	-12.9859	23.4065	3.31312	-6.73307e-05	0.235054	0.0118692	1	11	0.13117	0.00048833	-3.64397e-06	-0.000398155	0.00362766	0.000836574	0.00372287	12.9859	4.90969e-07
7944	274.233	67.5466	282.429	-13.8372	24.875	3.31316	1.95255e-05	0.296604	0.0169655	1	11	0.132617	0.000469559	-3.27897e-06	-7.74882e-05	0.00343796	0.000846809	0.00354072	13.8372	4.97302e-08
5621.06	289.118	75.8862	298.912	-14.7069	26.7873	3.31318	-0.000137413	0.373112	0.024048	1	11	0.133202	0.000445623	-3.2885e-06	2.67859e-06	0.00323586	0.000849332	0.00334547	14.7069	6.86692e-08
3981.27	306.756	84.7061	318.237	-15.4367	29.0667	3.31319	-0.000122875	0.471936	0.0334359	1	11	0.13336	0.000419059	-2.84086e-06	-0.000478322	0.00302896	0.000836401	0.00314232	15.4367	2.46762e-07
2817.3	327.714	93.3994	340.764	-15.9077	31.347	3.31317	-0.000182892	0.604844	0.0454385	1	11	0.133342	0.000391302	-2.26177e-06	-0.000718822	0.0028222	0.000804334	0.00293458	15.9077	2.2394e-08
1995.64	352.061	100.7	366.18	-15.9622	33.8777	3.31317	-0.000129953	0.791966	0.0598936	1	12	0.135517	0.000370083	-2.76428e-06	0.000243179	0.0026256	0.000751004	0.0027309	15.9622	5.57269e-08
1411.84	379.404	105.204	393.72	-15.498	36.1582	3.31317	-0.000156018	1.07153	0.0765057	1	12	0.134831	0.000342456	-3.31254e-06	2.67859e-06	0.00244753	0.00067867	0.00253988	15.498	-1.42963e-07
1000.32	408.272	105.465	421.674	-14.484	38.4357	3.31316	-0.000187117	1.5086	0.0943704	1	12	0.134229	0.000318324	-3.58821e-06	-7.74882e-05	0.00229613	0.000593137	0.0023715	14.484	-9.87746e-08
707.509	436.691	100.905	448.197	-13.0109	40.7165	3.31316	-0.000154919	2.22933	0.112996	1	12	0.133776	0.000298476	-3.82251e-06	2.67859e-06	0.00217388	0.000502314	0.00223116	13.0109	-2.21672e-07
501.444	461.994	92.199	471.104	-11.2861	42.9882	3.31317	-0.000143789	3.44248	0.131853	1	12	0.133477	0.000283328	-4.26892e-06	-0.000157655	0.00208162	0.000415425	0.00212267	11.2861	2.18974e-08
354.66	482.999	81.0824	489.758	-9.52954	45.2679	3.31317	-0.000183594	5.53455	0.151695	1	12	0.1333	0.000272176	-4.60306e-06	8.28454e-05	0.00201365	0.000338037	0.00204183	9.52954	-2.158e-07
251.044	499.095	69.7497	503.945	-7.9557	47.5369	3.31316	-0.000150036	9.08923	0.174119	1	12	0.133185	0.000264285	-4.53697e-06	0.000403512	0.00196525	0.000274648	0.00198434	7.9557	7.99302e-08
177.781	511.231	59.8979	514.728	-6.68253	49.8272	3.31316	-7.28498e-05	14.9459	0.20239	1	12	0.133123	0.000258628	-4.36799e-06	0.000243179	0.00192957	0.000226076	0.00194277	6.68253	-1.72825e-07
125.846	520.641	52.2403	523.255	-5.72979	52.1024	3.31316	-0.00013872	24.209	0.241301	1	12	0.133088	0.000254346	-4.31061e-06	0.000243179	0.00190156	0.0001908	0.00191111	5.72979	8.50223e-08
89.116	528.321	47.0867	530.415	-5.09304	54.3747	3.31316	-0.000113271	37.9285	0.298903	1	12	0.133068	0.000250875	-4.63829e-06	2.67859e-06	0.00187787	0.000167366	0.00188531	5.09304	-2.02754e-07
63.0823	535.179	44.2188	537.002	-4.7233	56.6708	3.31317	-0.00011784	57.0566	0.386872	1	12	0.133055	0.000247774	-4.67385e-06	0.000403512	0.00185587	0.00015334	0.00186219	4.7233	-1.51737e-07
44.6712	541.752	43.5917	543.503	-4.60036	58.9352	3.31317	-8.94449e-05	81.7313	0.525766	1	12	0.133048	0.000244797	-4.68922e-06	2.67859e-06	0.00183399	0.000147571	0.00183992	4.60036	-1.45633e-07
31.6296	548.618	44.9332	550.455	-4.68222	61.1724	3.31316	-8.67035e-05	111.985	0.746192	1	12	0.133043	0.000241696	-4.90398e-06	-0.000317989	0.00181062	0.000148294	0.00181668	4.68222	2.33005e-08
22.3854	556.083	48.2126	558.17	-4.95516	63.4204	3.31316	-5.83643e-05	147.467	1.10023	1	12	0.133041	0.000238353	-4.91502e-06	0.000163012	0.00178487	0.000154749	0.00179157	4.95516	-7.72869e-07
15.8576	564.416	53.2875	566.926	-5.39341	65.7489	3.31316	-7.62253e-05	188.347	1.66401	1	12	0.133035	0.00023466	-4.39533e-06	0.000243179	0.00175609	0.000165796	0.0017639	5.39341	5.8797e-07
11.2249	574.114	60.2308	577.265	-5.98903	68.1259	3.31315	-0.000112898	235.408	2.56275	1	12	0.133035	0.000230457	-5.52103e-06	8.28454e-05	0.00172285	0.000180746	0.00173231	5.98903	-5.22659e-07
7.93953	585.516	69.2297	589.595	-6.74317	70.6697	3.31316	-0.00012979	289.556	3.99218	1	12	0.133035	0.000225638	-3.55288e-06	-0.000317989	0.00168435	0.000199152	0.00169608	6.74317	2.33635e-06
5.6205	598.717	80.2666	604.074	-7.63579	72.5347	3.31316	0.000176121	352.785	6.22874	1	12	0.133032	0.000220225	-5.53424e-06	0.000243179	0.00164075	0.000219966	0.00165543	7.63579	-1.49443e-06
3.97785	614.772	93.3497	621.819	-8.63409	75.0702	3.31315	-0.000120869	428.606	9.65953	1	12	0.133035	0.000213944	-2.66609e-06	0.000243179	0.00158996	0.000241426	0.00160818	8.63409	3.0372e-06
2.81836	633.506	108.684	642.761	-9.73488	78.5697	3.31317	-9.20985e-05	519.586	14.8556	1	12	0.133035	0.000206974	-2.00445e-06	0.000163012	0.00153339	0.000263067	0.00155579	9.73488	5.6618e-06
1.99706	655.99	126.449	668.066	-10.9105	83.4317	3.31318	-2.12446e-05	630.253	22.579	1	12	0.133033	0.000199132	-1.10993e-06	8.28454e-05	0.0014698	0.000283319	0.00149686	10.9105	5.56752e-06
1.41224	682.389	146.555	697.949	-12.1212	90.2382	3.31318	0.000159173	768.972	33.9052	1	12	0.133034	0.000190607	-7.8983e-06	0.000243179	0.00140083	0.000300853	0.00143277	12.1212	-7.45754e-06
1.00006	713.444	169.917	733.4	-13.3963	99.7832	3.31318	8.23073e-05	936.601	50.2746	1	12	0.133034	0.000181394	-9.54796e-06	8.28454e-05	0.00132641	0.000315905	0.00136351	13.3963	-6.80301e-06

File: DE_206_4_30.mpt
EC-Lab ASCII FILE
Nb header lines : 60

Potentio Electrochemical Impedance Spectroscopy

Run on channel : 4 (SN 4192)
User :
CE vs. WE compliance from -10 V to 10 V
Electrode connection : standard
Ewe ctrl range : min = -10.00 V, max = 10.00 V
Acquisition started on : 12/03/2020 16:53:59
Technique started on : 12/03/2020 16:54:00
Saved on :
	File : DE_206_4_30.mpr
	Directory : P:\Chemistry\Data\VMP3\Kyler\DOE\DE_206\
	Host : 10.0.4.64
Device : VMP3 (SN 1432)
Address : USB
EC-Lab for windows v11.33 (software)
Internet server v11.32 (firmware)
Command interpretor v11.33 (firmware)
Electrode material :
Initial state :
Electrolyte :
Comments :
Electrode surface area : 0.001 cm²
Characteristic mass : 0.001 g
Equivalent Weight : 0.000 g/eq.
Density : 0.000 g/cm3
Record Analogic IN 1
Cycle Definition : Charge/Discharge alternance
Mode                Single sine
E (V)               0.0000
vs.                 Eoc
tE (h:m:s)          0:00:0.0000
record              0
dI                  1.000
unit dI             mA
dt (s)              0.000
fi                  1.000
unit fi             MHz
ff                  1.000
unit ff             Hz
Nd                  20
Points              per decade
spacing             Logarithmic
Va (mV)             128.0
pw                  0.50
Na                  3
corr                0
E range min (V)     -10.000
E range max (V)     10.000
I Range             Auto
Bandwidth           5
nc cycles           0
goto Ns'            0
nr cycles           0
inc. cycle          1

freq/Hz	Re(Z)/Ohm	-Im(Z)/Ohm	|Z|/Ohm	Phase(Z)/deg	time/s	<Ewe>/V	<I>/mA	Cs/µF	Cp/µF	cycle number	I Range	|Ewe|/V	|I|/A	(Q-Qo)/mA.h	Analog IN 1/V	Re(Y)/Ohm-1	Im(Y)/Ohm-1	|Y|/Ohm-1	Phase(Y)/deg	dq/mA.h
1.00002e+06	85.8335	36.3943	93.2305	-22.9774	1.94949	3.32559	-0.00369155	0.00437299	0.000666391	1	11	0.00311756	3.34393e-05	-1.63044e-06	-0.0013667	0.00987508	0.00418713	0.0107261	22.9774	-1.63044e-06
707950	94.9906	31.1932	99.9812	-18.1792	3.73648	3.32626	-0.000272779	0.00720705	0.000701522	1	11	0.00845759	8.45918e-05	-2.21673e-06	-0.00104593	0.00950264	0.0031205	0.0100019	18.1792	9.40253e-09
501206	103.666	28.8263	107.6	-15.5396	5.52547	3.32659	0.00118898	0.0110158	0.000790627	1	11	0.0188939	0.000175595	-1.4883e-06	-0.000564764	0.00895399	0.00248982	0.00929371	15.5396	3.85253e-07
354810	110.861	26.4653	113.976	-13.4267	7.31349	3.32671	0.00157387	0.0169491	0.000913849	1	11	0.0355319	0.000311749	-2.013e-07	-0.000564764	0.00853396	0.00203728	0.00877377	13.4267	5.1458e-07
251188	116.78	23.8495	119.191	-11.5426	9.09947	3.32676	0.00162264	0.026567	0.0010637	1	11	0.0601766	0.000504877	1.43787e-06	-0.000725151	0.00822024	0.00167879	0.00838992	11.5426	7.76723e-07
177832	121.846	21.2966	123.694	-9.91413	10.8865	3.32671	0.00151265	0.0420243	0.00124574	1	11	0.094091	0.000760678	3.1468e-06	-0.000324182	0.00796377	0.00139192	0.00808449	9.91413	7.67843e-08
125909	125.754	18.9005	127.166	-8.54745	12.4035	3.32673	0.0016917	0.0668789	0.00147738	1	11	0.136525	0.00107359	4.99242e-06	0.00015698	0.00777639	0.00116877	0.00786373	8.54745	6.77349e-08
89129.3	129.221	16.8454	130.315	-7.42725	14.1885	3.32676	0.00187446	0.106003	0.00177131	1	11	0.12971	0.00099536	8.05455e-06	-0.00200825	0.00760935	0.000991962	0.00767373	7.42725	2.52885e-06
63093.8	132.159	15.1502	133.025	-6.53961	15.9745	3.32678	0.00188582	0.1665	0.00215967	1	11	0.129391	0.000972682	8.42721e-06	-0.000725151	0.00746848	0.000856157	0.0075174	6.53961	2.08189e-06
44666.7	134.696	13.8854	135.41	-5.88566	17.6265	3.32681	0.00205705	0.256612	0.00269832	1	11	0.130309	0.000962329	5.70584e-06	-0.000564764	0.00734604	0.000757282	0.00738497	5.88566	-1.22103e-06
31621.1	136.857	13.0975	137.482	-5.46666	19.1405	3.32681	0.00200716	0.384287	0.00348767	1	11	0.137213	0.000998039	8.09705e-06	-0.000805345	0.00724057	0.000692936	0.00727366	5.46666	-2.01685e-08
22389	138.919	12.8366	139.511	-5.27932	20.6555	3.32683	0.00204569	0.553778	0.00468832	1	11	0.139639	0.00100092	9.46656e-06	-0.000564764	0.00713749	0.000659527	0.00716789	5.27932	1.13563e-06
15847.7	140.988	13.1452	141.6	-5.32666	22.1695	3.32681	0.00200996	0.763987	0.00658413	1	11	0.135293	0.000955461	6.5754e-06	-0.000564764	0.00703167	0.000655608	0.00706217	5.32666	-6.39903e-07
11217.7	143.191	14.0115	143.875	-5.58869	23.5465	3.32683	0.00202559	1.01259	0.00960349	1	11	0.14068	0.000977794	6.52288e-06	-0.00144689	0.00691744	0.000676882	0.00695048	5.58869	-2.47023e-08
7944	145.743	15.432	146.558	-6.04423	25.15	3.32689	0.00248921	1.29826	0.0143941	1	11	0.130885	0.000893058	8.94644e-06	-0.000324182	0.00678532	0.000718462	0.00682325	6.04423	7.90056e-07
5621.06	148.816	17.3513	149.824	-6.65041	27.0623	3.32692	0.00247469	1.63182	0.0218862	1	11	0.132107	0.000881751	1.09172e-05	-0.000644957	0.00662959	0.000772982	0.0066745	6.65041	1.21436e-06
3981.27	152.651	19.6354	153.908	-7.3297	29.3427	3.32693	0.00258226	2.03591	0.0331371	1	11	0.132643	0.000861832	1.28207e-05	-0.000725151	0.00644428	0.000828927	0.00649738	7.3297	1.85296e-08
2817.3	157.463	22.0549	159	-7.9732	31.6229	3.32692	0.00230886	2.56143	0.0492831	1	11	0.132828	0.000835396	1.31387e-05	-0.000885539	0.0062285	0.000872388	0.0062893	7.9732	-2.15955e-07
1995.64	163.283	24.2003	165.067	-8.43049	33.9027	3.32692	0.00240806	3.29546	0.0708337	1	11	0.132858	0.000804877	1.44212e-05	-0.000644957	0.00599269	0.000888182	0.00605815	8.43049	-2.81022e-08
1411.84	170.079	25.5574	171.988	-8.54579	36.1842	3.32692	0.00237902	4.41081	0.097399	1	11	0.132821	0.000772264	1.72575e-05	-0.000564764	0.00574979	0.00086401	0.00581434	8.54579	1.02179e-06
1000.32	177.275	25.7026	179.129	-8.24964	38.4617	3.32695	0.00275088	6.1902	0.127446	1	11	0.132767	0.000741184	1.96199e-05	-0.000965732	0.0055248	0.000801023	0.00558257	8.24964	1.08347e-06
707.509	184.262	24.5192	185.887	-7.57962	40.7425	3.32693	0.00270752	9.1745	0.159624	1	11	0.132725	0.000714013	2.20006e-05	-0.000725151	0.00533262	0.000709593	0.00537962	7.57962	1.2414e-06
501.444	190.296	22.3501	191.604	-6.69864	43.0142	3.32692	0.00262488	14.201	0.193226	1	11	0.132687	0.000692507	2.47265e-05	-0.000644957	0.00518346	0.000608792	0.00521909	6.69864	7.47884e-07
354.66	195.121	19.7992	196.123	-5.79404	45.2939	3.32692	0.00262953	22.6653	0.230992	1	11	0.132664	0.000676433	2.63144e-05	-0.000885539	0.00507278	0.000514741	0.00509883	5.79404	8.71679e-07
251.044	198.806	17.4632	199.571	-5.02001	47.5629	3.32692	0.00268593	36.3032	0.27797	1	11	0.132653	0.000664688	2.83052e-05	-0.00120631	0.00499152	0.000438458	0.00501074	5.02001	7.77614e-07
177.781	201.639	15.6822	202.248	-4.44714	49.8553	3.32692	0.00277805	57.0858	0.343221	1	11	0.132641	0.000655833	2.86896e-05	-0.000965732	0.00492955	0.000383389	0.00494443	4.44714	-1.26281e-08
125.846	203.968	14.6446	204.493	-4.1067	52.1304	3.32692	0.00265391	86.3583	0.442895	1	11	0.132634	0.000648599	3.07382e-05	-0.00048457	0.00487758	0.000350202	0.00489013	4.1067	8.0489e-07
89.116	206.072	14.327	206.57	-3.97705	54.4027	3.32692	0.00277842	124.655	0.599635	1	11	0.132639	0.000642103	3.17356e-05	-0.00048457	0.00482932	0.000335755	0.00484098	3.97705	1.62219e-07
63.0823	208.157	14.7818	208.681	-4.06192	56.6988	3.32691	0.00272687	170.681	0.856397	1	11	0.132632	0.000635572	3.35615e-05	-0.00104593	0.00477997	0.00033944	0.00479201	4.06192	2.49749e-07
44.6712	210.504	15.8726	211.101	-4.31211	58.9642	3.32691	0.00267978	224.463	1.26899	1	11	0.132631	0.000628283	3.52534e-05	-0.000324182	0.00472365	0.000356177	0.00473706	4.31211	2.30293e-07
31.6296	213.24	17.6479	213.969	-4.73105	61.2014	3.32691	0.00265838	285.124	1.93962	1	11	0.132633	0.000619872	3.62705e-05	-0.000404376	0.00465765	0.00038547	0.00467357	4.73105	4.53763e-07
22.3854	216.467	20.0442	217.393	-5.29031	63.4484	3.32691	0.00272463	354.705	3.01544	1	11	0.13263	0.000610094	3.81864e-05	-0.000725151	0.00458036	0.000424126	0.00459995	5.29031	-1.29872e-06
15.8576	220.311	23.0683	221.515	-5.97754	65.7759	3.32691	0.00273264	435.079	4.71836	1	11	0.132629	0.000598735	4.12816e-05	-0.00048457	0.00448982	0.000470119	0.00451436	5.97754	1.95533e-06
11.2249	224.857	26.7366	226.441	-6.78091	68.1529	3.32691	0.00250576	530.315	7.39325	1	11	0.132631	0.000585718	4.02815e-05	-0.000243989	0.00438527	0.00052143	0.00441617	6.78091	-7.44384e-07
7.93953	230.276	31.0227	232.356	-7.67268	70.6967	3.32691	0.00245383	646.169	11.5185	1	11	0.132641	0.000570852	4.71466e-05	-0.000564764	0.00426521	0.000574608	0.00430374	7.67268	6.61938e-06
5.6205	236.511	35.928	239.224	-8.63767	72.5616	3.32691	0.00322845	788.156	17.7774	1	11	0.132631	0.000554423	4.35367e-05	-0.00104593	0.00413277	0.000627802	0.00418018	8.63767	-3.26425e-06
3.97785	243.785	41.5323	247.298	-9.66833	75.0972	3.3269	0.00246267	963.354	27.1717	1	11	0.132636	0.000536344	5.2545e-05	-0.000885539	0.00398628	0.000679119	0.00404371	9.66833	8.24431e-06
2.81836	252.263	47.889	256.769	-10.749	78.5956	3.32691	0.00225085	1179.2	41.018	1	11	0.132639	0.000516571	5.67328e-05	-3.40745e-06	0.00382622	0.000726359	0.00389455	10.749	1.50263e-05
1.99706	262.678	55.1763	268.41	-11.8627	84.0067	3.32692	0.00010014	1444.36	61.0357	1	12	0.132645	0.000494188	6.0005e-05	-0.000885539	0.00364607	0.00076587	0.00372564	11.8627	1.27737e-05
1.41224	274.114	63.4699	281.366	-13.0368	90.8131	3.32693	0.00031301	1775.6	90.3518	1	12	0.132642	0.000471422	5.07252e-05	7.67863e-05	0.00346248	0.000801723	0.00355409	13.0368	-3.30325e-06
1.00006	287.139	73.0346	296.282	-14.2707	100.359	3.32693	0.000478798	2179.03	132.407	1	12	0.132647	0.000447704	3.08369e-05	-0.00144689	0.00327102	0.000831993	0.00337517	14.2707	-3.29676e-05