Folder: EIS_Manager/utils (part 3)

File: DE_206_5_30.mpt
EC-Lab ASCII FILE
Nb header lines : 60

Potentio Electrochemical Impedance Spectroscopy

Run on channel : 5 (SN 41380)
User :
CE vs. WE compliance from -10 V to 10 V
Electrode connection : standard
Ewe ctrl range : min = -10.00 V, max = 10.00 V
Acquisition started on : 12/03/2020 16:53:50
Technique started on : 12/03/2020 16:53:51
Saved on :
	File : DE_206_5_30.mpr
	Directory : P:\Chemistry\Data\VMP3\Kyler\DOE\DE_206\
	Host : 10.0.4.64
Device : VMP3 (SN 1432)
Address : USB
EC-Lab for windows v11.33 (software)
Internet server v11.32 (firmware)
Command interpretor v11.33 (firmware)
Electrode material :
Initial state :
Electrolyte :
Comments :
Electrode surface area : 0.001 cm²
Characteristic mass : 0.001 g
Equivalent Weight : 0.000 g/eq.
Density : 0.000 g/cm3
Record Analogic IN 1
Cycle Definition : Charge/Discharge alternance
Mode                Single sine
E (V)               0.0000
vs.                 Eoc
tE (h:m:s)          0:00:0.0000
record              0
dI                  1.000
unit dI             mA
dt (s)              0.000
fi                  1.000
unit fi             MHz
ff                  1.000
unit ff             Hz
Nd                  20
Points              per decade
spacing             Logarithmic
Va (mV)             128.0
pw                  0.50
Na                  3
corr                0
E range min (V)     -10.000
E range max (V)     10.000
I Range             Auto
Bandwidth           5
nc cycles           0
goto Ns'            0
nr cycles           0
inc. cycle          1

freq/Hz	Re(Z)/Ohm	-Im(Z)/Ohm	|Z|/Ohm	Phase(Z)/deg	time/s	<Ewe>/V	<I>/mA	Cs/µF	Cp/µF	cycle number	I Range	|Ewe|/V	|I|/A	(Q-Qo)/mA.h	Analog IN 1/V	Re(Y)/Ohm-1	Im(Y)/Ohm-1	|Y|/Ohm-1	Phase(Y)/deg	dq/mA.h
1.00002e+06	67.4491	19.2264	70.1358	-15.9102	1.64547	3.32185	0.00223738	0.00827779	0.000622057	1	11	0.000418734	5.97033e-06	1.00102e-06	0.000865779	0.0137119	0.00390857	0.0142581	15.9102	1.00102e-06
707950	74.7696	16.5965	76.5894	-12.515	3.4325	3.32076	-0.00227176	0.0135457	0.000636058	1	11	0.00133418	1.74198e-05	5.96232e-08	0.00134651	0.0127464	0.0028293	0.0130566	12.515	-5.55211e-07
501206	81.1419	15.9042	82.6859	-11.0896	5.22149	3.32056	-0.00287368	0.019966	0.000738673	1	11	0.00261074	3.15742e-05	-1.06764e-06	0.00206761	0.0118681	0.00232621	0.012094	11.0896	-7.48865e-07
354810	86.0167	14.9934	87.3137	-9.88774	7.00748	3.32047	-0.0032732	0.0299175	0.000882183	1	11	0.0156988	0.000179797	-2.24831e-06	0.00134651	0.0112828	0.00196668	0.011453	9.88774	-4.38351e-07
251188	89.8355	13.8656	90.8992	-8.77405	8.79448	3.32033	-0.0035764	0.0456965	0.00106326	1	11	0.0387956	0.000426799	-4.9311e-06	0.00134651	0.0108725	0.0016781	0.0110012	8.77405	-1.08954e-06
177832	92.8801	12.6882	93.7428	-7.77894	10.5815	3.32027	-0.00367497	0.0705359	0.00129222	1	11	0.0716105	0.000763904	-4.10962e-06	0.00134651	0.0105693	0.00144386	0.0106675	7.77894	2.8357e-07
125909	95.4716	11.6021	96.174	-6.92882	12.3675	3.32027	-0.00351757	0.10895	0.00158556	1	11	0.113091	0.0011759	-6.0471e-06	0.00126639	0.0103219	0.00125435	0.0103978	6.92882	5.25558e-07
89129.3	97.7138	10.6464	98.292	-6.21811	14.0185	3.32031	-0.00310459	0.167725	0.00196772	1	11	0.12977	0.00132025	-7.30026e-06	0.00102602	0.0101139	0.00110196	0.0101738	6.21811	-1.5908e-06
63093.8	99.6532	9.86677	100.14	-5.65449	15.8065	3.32033	-0.00312008	0.255657	0.00248193	1	11	0.129552	0.00129371	-1.10371e-05	0.00118627	0.00993739	0.000983912	0.00998597	5.65449	5.64455e-07
44666.7	101.346	9.35426	101.777	-5.27346	17.4575	3.32037	-0.00283425	0.380914	0.0032177	1	11	0.140714	0.00138257	-1.496e-05	0.00142663	0.00978381	0.000903045	0.00982539	5.27346	-1.04689e-06
31621.1	102.883	9.15606	103.289	-5.08564	19.1085	3.32037	-0.00286954	0.549711	0.00431956	1	11	0.130109	0.00125965	-1.58724e-05	0.001667	0.00964342	0.000858216	0.00968153	5.08564	1.02462e-06
22389	104.358	9.31637	104.773	-5.10144	20.6235	3.32038	-0.0029754	0.763024	0.00603296	1	11	0.135251	0.00129089	-1.80784e-05	0.000785657	0.00950661	0.000848683	0.00954442	5.10144	5.88098e-07
15847.7	105.89	9.88414	106.35	-5.33274	22.1375	3.32038	-0.00295412	1.01605	0.00877639	1	11	0.133003	0.00125062	-1.74404e-05	0.00134651	0.00936219	0.0008739	0.00940289	5.33274	5.36636e-08
11217.7	107.596	10.8664	108.143	-5.76691	23.5145	3.32038	-0.00305064	1.30566	0.0131827	1	11	0.139998	0.00129456	-1.96765e-05	0.00102602	0.00920021	0.000929155	0.00924701	5.76691	-1.01791e-06
7944	109.62	12.2618	110.303	-6.38246	25.118	3.32044	-0.0025081	1.6339	0.0201911	1	11	0.131382	0.0011911	-2.16863e-05	0.00126639	0.00900972	0.00100781	0.00906591	6.38246	2.92029e-07
5621.06	112.138	14.0398	113.013	-7.13637	27.0303	3.32047	-0.00232793	2.0167	0.0311246	1	11	0.133004	0.00117689	-2.38838e-05	0.00174712	0.00877996	0.00109926	0.0088485	7.13637	-8.824e-07
3981.27	115.319	16.0662	116.433	-7.93134	29.3097	3.3205	-0.00226464	2.4882	0.047376	1	11	0.133708	0.00114837	-2.59049e-05	0.00118627	0.00850647	0.00118511	0.00858863	7.93134	-1.01406e-06
2817.3	119.354	18.1255	120.722	-8.63517	31.588	3.32048	-0.00241998	3.11671	0.0702591	1	11	0.133955	0.00110961	-2.50542e-05	0.00102602	0.00818956	0.0012437	0.00828346	8.63517	1.25912e-07
1995.64	124.238	19.8615	125.816	-9.0828	33.8677	3.3205	-0.00238245	4.01538	0.100065	1	11	0.133967	0.00106479	-2.74443e-05	0.00134651	0.00784848	0.00125471	0.00794814	9.0828	-1.03279e-07
1411.84	129.848	20.8804	131.516	-9.13532	36.1472	3.32049	-0.00249111	5.3988	0.136087	1	11	0.133906	0.00101818	-2.90562e-05	0.001667	0.00750719	0.0012072	0.00760363	9.13532	3.32324e-07
1000.32	135.711	20.8336	137.301	-8.72759	38.4247	3.3205	-0.00239925	7.63688	0.175832	1	11	0.133827	0.000974699	-2.92812e-05	0.00126639	0.00719892	0.00110514	0.00728325	8.72759	3.42006e-07
707.509	141.289	19.7247	142.659	-7.94745	40.7055	3.32049	-0.00246852	11.4045	0.218022	1	11	0.133751	0.000937555	-2.98325e-05	0.00126639	0.0069424	0.000969198	0.00700973	7.94745	2.94789e-07
501.444	146.039	17.8974	147.132	-6.98688	42.9772	3.32049	-0.00248681	17.7341	0.262407	1	11	0.133707	0.000908756	-3.01625e-05	0.00150676	0.00674617	0.000826757	0.00679664	6.98688	6.28225e-08
354.66	149.812	15.827	150.646	-6.03066	45.2549	3.32049	-0.00253088	28.3538	0.312962	1	11	0.133673	0.000887331	-3.2407e-05	0.00158688	0.00660135	0.000697402	0.00663809	6.03066	-1.19488e-06
251.044	152.698	13.9899	153.338	-5.23473	47.5239	3.3205	-0.00241232	45.3162	0.377214	1	11	0.133656	0.000871648	-3.26462e-05	0.00126639	0.00649436	0.000595002	0.00652156	5.23473	4.06493e-07
177.781	154.942	12.6457	155.457	-4.66587	49.8153	3.32049	-0.00250157	70.7934	0.468439	1	11	0.133639	0.000859651	-3.29473e-05	0.001667	0.00641132	0.000523262	0.00643264	4.66587	-6.18016e-07
125.846	156.847	11.8775	157.296	-4.33057	52.0894	3.32049	-0.00244238	106.477	0.607117	1	11	0.133636	0.00084958	-3.40401e-05	0.00142663	0.00633929	0.000480055	0.00635744	4.33057	-4.51977e-07
89.116	158.598	11.7035	159.03	-4.22039	54.3607	3.32049	-0.00245284	152.598	0.826464	1	11	0.133624	0.000840243	-3.62114e-05	0.001667	0.00627108	0.000462764	0.00628814	4.22039	-4.01552e-07
63.0823	160.413	12.0934	160.868	-4.31135	56.6559	3.32049	-0.00237106	208.623	1.17903	1	11	0.133626	0.000830655	-3.78738e-05	0.00142663	0.0061987	0.000467317	0.00621629	4.31135	-6.57078e-07
44.6712	162.386	13.0195	162.907	-4.58398	58.9212	3.32049	-0.00245751	273.651	1.74788	1	11	0.133625	0.000820256	-3.83422e-05	0.00126639	0.00611885	0.00049059	0.00613849	4.58398	-6.52246e-07
31.6296	164.639	14.4607	165.273	-5.01957	61.1585	3.32049	-0.00260761	347.966	2.66387	1	11	0.133628	0.000808525	-3.91539e-05	0.00126639	0.00602738	0.000529402	0.00605059	5.01957	3.79737e-07
22.3854	167.268	16.4186	168.072	-5.60607	63.4064	3.32047	-0.00241326	433.03	4.13241	1	11	0.133625	0.000795048	-4.13366e-05	0.00158688	0.00592138	0.00058123	0.00594984	5.60607	-1.84772e-06
15.8576	170.374	18.8782	171.417	-6.32281	65.7329	3.3205	-0.00275174	531.647	6.44815	1	11	0.133618	0.000779491	-4.02764e-05	0.00102602	0.00579824	0.000642469	0.00583373	6.32281	3.37574e-06
11.2249	174.071	21.8465	175.437	-7.15342	68.1099	3.32047	-0.00294292	649.018	10.0642	1	11	0.133621	0.000761649	-4.21244e-05	0.00182724	0.0056557	0.000709809	0.00570006	7.15342	3.5585e-06
7.93953	178.438	25.3299	180.227	-8.07936	70.6527	3.32048	-0.00279366	791.391	15.6322	1	11	0.133617	0.000741379	-4.46548e-05	0.00190737	0.00549348	0.000779819	0.00554856	8.07936	1.57228e-06
5.6205	183.537	29.3426	185.868	-9.08317	72.5177	3.32047	-0.00348678	965.044	24.0511	1	11	0.133617	0.000718882	-5.32308e-05	0.00134651	0.00531271	0.000849357	0.00538017	9.08317	-3.37005e-06
3.97785	189.429	33.9942	192.455	-10.1738	75.0532	3.32048	-0.00233672	1176.97	36.7212	1	11	0.133625	0.000694314	-4.60388e-05	0.001667	0.00511431	0.000917793	0.00519601	10.1738	-4.10006e-06
2.81836	196.322	39.3996	200.237	-11.3479	78.5527	3.32049	-0.0023395	1433.28	55.4917	1	11	0.13362	0.00066731	-4.54304e-05	0.00118627	0.00489646	0.000982663	0.00499409	11.3479	2.0955e-06
1.99706	204.18	45.5832	209.206	-12.5849	83.4157	3.32049	-0.00204668	1748.33	83.0011	1	11	0.133618	0.00063869	-5.85995e-05	0.000945901	0.00466513	0.00104149	0.00477997	12.5849	-1.46017e-05
1.41224	213.328	52.9368	219.798	-13.9363	90.2221	3.32049	-0.00228673	2128.9	123.487	1	11	0.133618	0.000607916	-7.96849e-05	0.00198749	0.00441571	0.00109575	0.00454964	13.9363	-3.51694e-05
1.00006	223.94	61.2584	232.167	-15.2989	99.7683	3.32049	-0.00308838	2597.93	180.866	1	11	0.133618	0.000575524	-5.21072e-05	0.00118627	0.0041546	0.00113648	0.00430724	15.2989	3.21082e-05

File: DE_206_6_30.mpt
EC-Lab ASCII FILE
Nb header lines : 60

Potentio Electrochemical Impedance Spectroscopy

Run on channel : 6 (SN 41300)
User :
CE vs. WE compliance from -10 V to 10 V
Electrode connection : standard
Ewe ctrl range : min = -10.00 V, max = 10.00 V
Acquisition started on : 12/03/2020 16:53:40
Technique started on : 12/03/2020 16:53:41
Saved on :
	File : DE_206_6_30.mpr
	Directory : P:\Chemistry\Data\VMP3\Kyler\DOE\DE_206\
	Host : 10.0.4.64
Device : VMP3 (SN 1432)
Address : USB
EC-Lab for windows v11.33 (software)
Internet server v11.32 (firmware)
Command interpretor v11.33 (firmware)
Electrode material :
Initial state :
Electrolyte :
Comments :
Electrode surface area : 0.001 cm²
Characteristic mass : 0.001 g
Equivalent Weight : 0.000 g/eq.
Density : 0.000 g/cm3
Record Analogic IN 1
Cycle Definition : Charge/Discharge alternance
Mode                Single sine
E (V)               0.0000
vs.                 Eoc
tE (h:m:s)          0:00:0.0000
record              0
dI                  1.000
unit dI             mA
dt (s)              0.000
fi                  1.000
unit fi             MHz
ff                  1.000
unit ff             Hz
Nd                  20
Points              per decade
spacing             Logarithmic
Va (mV)             128.0
pw                  0.50
Na                  3
corr                0
E range min (V)     -10.000
E range max (V)     10.000
I Range             Auto
Bandwidth           5
nc cycles           0
goto Ns'            0
nr cycles           0
inc. cycle          1

freq/Hz	Re(Z)/Ohm	-Im(Z)/Ohm	|Z|/Ohm	Phase(Z)/deg	time/s	<Ewe>/V	<I>/mA	Cs/µF	Cp/µF	cycle number	I Range	|Ewe|/V	|I|/A	(Q-Qo)/mA.h	Analog IN 1/V	Re(Y)/Ohm-1	Im(Y)/Ohm-1	|Y|/Ohm-1	Phase(Y)/deg	dq/mA.h
1.00002e+06	-11.5864	45.4343	46.8884	-104.306	1.8456	3.32612	0.2129	0.0035029	0.00328901	1	9	5.61612e-05	1.19776e-06	2.25835e-05	-0.000799647	-0.00527008	0.0206658	0.0213272	104.306	2.25835e-05
707950	97.3347	31.0296	102.161	-17.6819	4.21049	3.3254	0.000739074	0.00724506	0.000668379	1	11	0.00358976	3.51382e-05	4.30124e-05	-0.000238476	0.00932603	0.00297307	0.00978846	17.6819	2.88397e-07
501206	107.125	28.8889	110.952	-15.0921	5.99847	3.32545	0.00100067	0.0109919	0.000745182	1	11	0.0133916	0.000120697	4.35662e-05	-0.000238476	0.00870202	0.0023467	0.00901289	15.0921	3.42167e-08
354810	114.804	26.5655	117.838	-13.0288	7.78749	3.32555	0.00138934	0.0168852	0.000858167	1	11	0.0305551	0.000259298	4.43875e-05	-0.000158308	0.00826777	0.00191314	0.00848623	13.0288	8.33427e-07
251188	120.895	23.9466	123.244	-11.204	9.57448	3.3255	0.00125408	0.0264593	0.00099893	1	11	0.0559732	0.000454166	4.53748e-05	-0.000398811	0.00795935	0.00157657	0.00811399	11.204	6.42427e-07
177832	125.821	21.405	127.628	-9.65488	11.3615	3.32545	0.00114061	0.0418115	0.00117606	1	11	0.0904135	0.000708412	4.48676e-05	-0.00071948	0.00772427	0.00131407	0.00783525	9.65488	-1.08593e-06
125909	130.001	19.0963	131.396	-8.35663	12.8775	3.32547	0.00123732	0.0661931	0.00139813	1	11	0.13375	0.00101792	4.46303e-05	-0.00071948	0.00752978	0.00110608	0.00761059	8.35663	9.88148e-07
89129.3	133.574	17.0756	134.661	-7.28497	14.6635	3.32551	0.00136271	0.104574	0.00168148	1	11	0.129643	0.000962734	4.17105e-05	-0.000639313	0.0073661	0.000941654	0.00742604	7.28497	-1.58735e-06
63093.8	136.634	15.3686	137.496	-6.41763	16.4505	3.32553	0.00140687	0.164134	0.00205063	1	11	0.129434	0.000941366	4.39574e-05	-0.000158308	0.00722736	0.00081293	0.00727294	6.41763	-1.8759e-08
44666.7	139.232	14.0644	139.94	-5.76811	18.1005	3.32554	0.00138637	0.253347	0.002559	1	11	0.130399	0.000931816	4.53146e-05	-0.000478978	0.00710972	0.00071818	0.0071459	5.76811	-2.56334e-07
31621.1	141.527	13.2181	142.142	-5.33574	19.6135	3.32557	0.00144879	0.38078	0.00329278	1	11	0.137279	0.000965786	4.80809e-05	-0.000158308	0.00700471	0.000654215	0.0070352	5.33574	7.62827e-07
22389	143.618	12.8973	144.196	-5.13155	21.1265	3.32558	0.00142457	0.551172	0.00440938	1	11	0.139751	0.000969176	4.76459e-05	-0.000478978	0.00690722	0.000620287	0.00693501	5.13155	1.12373e-06
15847.7	145.678	13.1359	146.269	-5.15248	22.6415	3.32558	0.0014991	0.764531	0.00616611	1	11	0.135565	0.000926823	4.99364e-05	-0.000478978	0.00680911	0.000613984	0.00683674	5.15248	5.68609e-07
11217.7	147.88	13.9456	148.536	-5.38727	24.1575	3.32557	0.00143556	1.01737	0.00896791	1	11	0.129328	0.000870686	5.12346e-05	2.02625e-06	0.00670265	0.000632085	0.00673239	5.38727	6.59387e-07
7944	150.36	15.3302	151.14	-5.82155	25.625	3.32563	0.0016884	1.30687	0.0134453	1	11	0.132006	0.000873407	5.18139e-05	0.000162361	0.00658228	0.000671105	0.0066164	5.82155	6.15108e-08
5621.06	153.384	17.2602	154.352	-6.42044	27.5363	3.32565	0.00166884	1.64043	0.0205127	1	11	0.133316	0.000863715	5.32655e-05	-7.81411e-05	0.00643807	0.000724471	0.0064787	6.42044	8.99673e-07
3981.27	157.163	19.5931	158.38	-7.10623	29.8157	3.32566	0.00164182	2.0403	0.0312249	1	11	0.133901	0.000845442	5.50493e-05	-0.000318643	0.00626543	0.000781093	0.00631393	7.10623	-1.93086e-07
2817.3	161.939	22.0868	163.438	-7.76662	32.0959	3.32567	0.00167964	2.55773	0.0467102	1	11	0.134122	0.000820627	5.55229e-05	-0.000238476	0.00606238	0.000826845	0.00611851	7.76662	-3.10756e-07
1995.64	167.781	24.3315	169.536	-8.25146	34.3757	3.32567	0.00176889	3.27771	0.067512	1	11	0.134164	0.000791361	5.64992e-05	-0.000318643	0.00583738	0.000846531	0.00589844	8.25146	-1.3626e-07
1411.84	174.616	25.8007	176.512	-8.40501	36.6562	3.32566	0.00167778	4.36923	0.0933509	1	11	0.134134	0.000759915	5.80293e-05	-0.000318643	0.0056045	0.000828101	0.00566534	8.40501	8.59884e-07
1000.32	181.93	26.0165	183.781	-8.13828	38.9337	3.32567	0.0016597	6.11551	0.122555	1	11	0.134091	0.000729626	5.94834e-05	-0.000799647	0.00538647	0.000770281	0.00544127	8.13828	7.53963e-07
707.509	189.041	24.8751	190.671	-7.49623	41.2145	3.32566	0.001623	9.04322	0.153916	1	11	0.134038	0.00070298	6.11135e-05	-0.000238476	0.00519982	0.000684221	0.00524464	7.49623	5.79627e-07
501.444	195.209	22.7133	196.526	-6.63675	43.4862	3.32565	0.00157996	13.9739	0.186655	1	11	0.134009	0.000681889	6.23304e-05	-0.000318643	0.0050543	0.000588088	0.00508839	6.63675	8.90361e-07
354.66	200.193	20.154	201.205	-5.74877	45.7649	3.32566	0.00158256	22.2663	0.223406	1	11	0.133993	0.000665956	6.31829e-05	-0.000398811	0.00494507	0.000497835	0.00497007	5.74877	6.93337e-07
251.044	203.985	17.7982	204.76	-4.98658	48.0339	3.32566	0.00156896	35.62	0.269127	1	11	0.133974	0.000654299	6.32224e-05	-0.000158308	0.00486529	0.000424509	0.00488377	4.98658	-3.40487e-07
177.781	206.947	15.995	207.564	-4.41963	50.3243	3.32565	0.001563	55.9691	0.332364	1	11	0.133963	0.000645404	6.41487e-05	-0.000158308	0.00480345	0.000371261	0.00481778	4.41963	5.5923e-07
125.846	209.398	14.9527	209.931	-4.08446	52.5984	3.32565	0.00151586	84.5787	0.429092	1	11	0.133957	0.0006381	6.51521e-05	-0.000238476	0.00475138	0.000339288	0.00476347	4.08446	8.73206e-07
89.116	211.653	14.6366	212.159	-3.95592	54.8708	3.32565	0.00156523	122.018	0.580742	1	11	0.133955	0.000631392	6.6442e-05	-0.000238476	0.00470223	0.000325176	0.00471346	3.95592	-1.45191e-07
63.0823	213.963	15.0323	214.49	-4.01881	57.1668	3.32567	0.00157865	167.836	0.824372	1	11	0.133953	0.000624516	6.76948e-05	-0.000318643	0.00465075	0.000326746	0.00466221	4.01881	3.40016e-07
44.6712	216.436	16.1189	217.036	-4.2592	59.4322	3.32565	0.00159784	221.032	1.21918	1	11	0.13395	0.00061718	6.78659e-05	-0.000238476	0.00459481	0.000342196	0.00460754	4.2592	3.19545e-07
31.6296	219.255	17.8615	219.982	-4.65728	61.6695	3.32565	0.00160194	281.714	1.85726	1	11	0.133951	0.000608919	6.80407e-05	-0.000318643	0.00453082	0.000369101	0.00454583	4.65728	-3.97198e-07
22.3854	222.574	20.2066	223.489	-5.18743	63.9174	3.32565	0.00144449	351.854	2.87631	1	11	0.133952	0.000599368	6.95504e-05	-0.000559145	0.00445616	0.000404557	0.00447449	5.18743	5.80182e-07
15.8576	226.421	23.1789	227.605	-5.84505	66.2449	3.32565	0.00171932	433.002	4.4907	1	11	0.133953	0.000588532	6.88509e-05	-0.000238476	0.00437074	0.000447436	0.00439358	5.84505	-2.27774e-06
11.2249	231.053	26.7806	232.6	-6.61146	68.6219	3.32564	0.00169845	529.443	7.01844	1	11	0.133952	0.000575892	6.91064e-05	-0.000398811	0.00427064	0.000494995	0.00429923	6.61146	-3.30413e-06
7.93953	236.477	31.0123	238.502	-7.47129	71.1657	3.32563	0.00152089	646.385	10.9288	1	11	0.133946	0.000561615	7.2065e-05	-0.000478978	0.00415724	0.000545192	0.00419283	7.47129	2.68399e-07
5.6205	242.834	35.8341	245.464	-8.39434	73.0307	3.32564	0.00245305	790.221	16.8409	1	11	0.133945	0.000545681	7.70654e-05	-0.000158308	0.00403027	0.000594732	0.00407392	8.39434	1.55459e-06
3.97785	250.156	41.4505	253.567	-9.40834	75.5662	3.32564	0.00105816	965.253	25.7938	1	11	0.133953	0.000528275	7.28496e-05	-0.000478978	0.00389068	0.000644679	0.00394373	9.40834	5.04812e-06
2.81836	258.84	47.8751	263.231	-10.479	79.0626	3.32565	0.00152413	1179.54	39.0175	1	11	0.13395	0.000508871	7.25443e-05	-0.00071948	0.00373559	0.000690933	0.00379895	10.479	2.11444e-06
1.99706	268.768	55.2108	274.38	-11.6083	84.4196	3.32565	5.59578e-05	1443.46	58.4451	1	12	0.133949	0.000488187	7.39777e-05	-0.000158308	0.00357003	0.000733363	0.00364458	11.6083	3.32528e-06
1.41224	280.176	63.7222	287.331	-12.8132	91.2261	3.32566	-0.000233787	1768.57	86.9838	1	12	0.133948	0.000466179	9.06601e-05	-0.000318643	0.00339364	0.000771838	0.00348031	12.8132	2.78637e-05
1.00006	293.57	73.3394	302.592	-14.0265	100.77	3.32566	0.000514309	2169.98	127.472	1	12	0.133948	0.000442669	7.08141e-05	2.02625e-06	0.00320625	0.000800983	0.00330478	14.0265	-1.58112e-05