Folder: EIS_Manager/utils (part 6)

File: DE_206_11_30.mpt
EC-Lab ASCII FILE
Nb header lines : 60

Potentio Electrochemical Impedance Spectroscopy

Run on channel : 11 (SN 41750)
User :
CE vs. WE compliance from -10 V to 10 V
Electrode connection : standard
Ewe ctrl range : min = -5.00 V, max = 5.00 V
Acquisition started on : 12/03/2020 16:52:56
Technique started on : 12/03/2020 16:52:57
Saved on :
	File : DE_206_11_30.mpr
	Directory : P:\Chemistry\Data\VMP3\Kyler\DOE\DE_206\
	Host : 10.0.4.64
Device : VMP3 (SN 1432)
Address : USB
EC-Lab for windows v11.33 (software)
Internet server v11.32 (firmware)
Command interpretor v11.33 (firmware)
Electrode material :
Initial state :
Electrolyte :
Comments :
Electrode surface area : 0.001 cm²
Characteristic mass : 0.001 g
Equivalent Weight : 0.000 g/eq.
Density : 0.000 g/cm3
Record Analogic IN 1
Cycle Definition : Charge/Discharge alternance
Mode                Single sine
E (V)               0.0000
vs.                 Eoc
tE (h:m:s)          0:00:0.0000
record              0
dI                  1.000
unit dI             mA
dt (s)              0.000
fi                  1.000
unit fi             MHz
ff                  1.000
unit ff             Hz
Nd                  20
Points              per decade
spacing             Logarithmic
Va (mV)             128.0
pw                  0.50
Na                  3
corr                0
E range min (V)     -5.000
E range max (V)     5.000
I Range             Auto
Bandwidth           5
nc cycles           0
goto Ns'            0
nr cycles           0
inc. cycle          1

freq/Hz	Re(Z)/Ohm	-Im(Z)/Ohm	|Z|/Ohm	Phase(Z)/deg	time/s	<Ewe>/V	<I>/mA	Cs/µF	Cp/µF	cycle number	I Range	|Ewe|/V	|I|/A	(Q-Qo)/mA.h	Analog IN 1/V	Re(Y)/Ohm-1	Im(Y)/Ohm-1	|Y|/Ohm-1	Phase(Y)/deg	dq/mA.h
1.00002e+06	82.9698	34.6845	89.9277	-22.6868	1.64548	3.3077	0.00215457	0.00458856	0.000682591	1	11	0.000492373	5.47521e-06	7.45936e-07	0.000781304	0.0102597	0.00428892	0.01112	22.6868	7.45936e-07
707950	91.8742	29.5786	96.5182	-17.8458	3.43247	3.30642	-0.0015335	0.00760047	0.0007138	1	11	0.00188065	1.94849e-05	3.28091e-07	0.000220421	0.00986223	0.00317511	0.0103607	17.8458	-2.97451e-07
501206	100.497	27.0134	104.064	-15.0455	5.22249	3.30615	-0.00192585	0.011755	0.000792107	1	11	0.0103664	9.96156e-05	-6.13071e-07	6.01684e-05	0.00928007	0.00249448	0.00960948	15.0455	-2.62537e-07
354810	107.404	24.562	110.177	-12.8813	7.00948	3.30605	-0.00207029	0.0182625	0.000907629	1	11	0.026909	0.000244235	-2.16035e-06	0.000701178	0.00884791	0.00202341	0.00907633	12.8813	-6.16276e-07
251188	112.81	21.9106	114.918	-10.9914	8.79649	3.30589	-0.00239032	0.028918	0.00105123	1	11	0.0524739	0.000456619	-3.43361e-06	0.00102168	0.0085422	0.00165911	0.00870183	10.9914	3.81999e-07
177832	117.192	19.3927	118.785	-9.39608	10.5835	3.30586	-0.00220877	0.04615	0.00123005	1	11	0.0874941	0.000736573	-2.25426e-06	0.00086143	0.00830559	0.0013744	0.00841854	9.39608	1.11533e-06
125909	120.834	17.1401	122.043	-8.07347	12.0975	3.30585	-0.00212508	0.0737479	0.00145461	1	11	0.13156	0.00107798	-3.89649e-06	0.000540925	0.00811261	0.00115076	0.00819382	8.07347	5.03387e-07
89129.3	123.944	15.1952	124.872	-6.98945	13.8845	3.3059	-0.00202163	0.117515	0.00174011	1	11	0.12967	0.00103843	-2.03474e-06	0.000540925	0.00794869	0.000974491	0.0080082	6.98945	1.99863e-07
63093.8	126.574	13.5897	127.301	-6.12813	15.6705	3.30597	-0.00168129	0.185619	0.00211533	1	11	0.129474	0.00101707	-2.89862e-06	0.000140295	0.00781049	0.000838579	0.00785538	6.12813	2.17101e-07
44666.7	128.805	12.37	129.398	-5.48564	17.3205	3.306	-0.00172341	0.28805	0.00263239	1	11	0.130385	0.00100763	-1.01832e-06	0.000701178	0.0076927	0.000738778	0.0077281	5.48564	1.03175e-06
31621.1	130.752	11.5861	131.264	-5.06382	18.8345	3.30602	-0.00171801	0.434417	0.00338444	1	11	0.13753	0.00104774	-3.11133e-06	0.000140295	0.00758851	0.000672426	0.00761824	5.06382	5.82794e-07
22389	132.524	11.2935	133.004	-4.87088	20.3485	3.30603	-0.00163208	0.629444	0.00453817	1	11	0.140303	0.00105488	-1.9242e-06	0.000300547	0.0074914	0.000638404	0.00751855	4.87088	-2.62483e-07
15847.7	134.259	11.5119	134.752	-4.90079	21.8635	3.30604	-0.00171856	0.87238	0.00636698	1	11	0.135882	0.00100839	-5.02738e-06	0.000540925	0.00739392	0.000633985	0.00742105	4.90079	-4.96618e-07
11217.7	136.117	12.2734	136.67	-5.15228	23.3795	3.30605	-0.00173273	1.15599	0.00932256	1	11	0.129338	0.000946357	-7.09405e-06	0.00102168	0.00728735	0.000657082	0.00731692	5.15228	-1.3378e-06
7944	138.213	13.5773	138.878	-5.61042	24.847	3.30609	-0.00155454	1.4756	0.0141035	1	11	0.13216	0.000951625	-6.61621e-06	0.00118193	0.00716607	0.000703956	0.00720057	5.61042	6.47406e-07
5621.06	140.798	15.416	141.64	-6.24843	26.7593	3.30612	-0.00140562	1.83667	0.0217573	1	11	0.133551	0.00094289	-6.30062e-06	0.00086143	0.00701823	0.000768427	0.00706017	6.24843	3.46604e-07
3981.27	144.037	17.6793	145.118	-6.99755	29.0377	3.30614	-0.0013525	2.26117	0.0335599	1	11	0.134176	0.000924602	-7.31929e-06	0.000781304	0.00683961	0.000839503	0.00689094	6.99755	2.94781e-07
2817.3	148.148	20.2014	149.519	-7.76494	31.3179	3.30614	-0.00135846	2.79645	0.0510479	1	11	0.134411	0.000898956	-6.57566e-06	0.00086143	0.00662681	0.000903629	0.00668813	7.76494	3.12317e-07
1995.64	153.25	22.6135	154.91	-8.39392	33.5977	3.30614	-0.00135306	3.52672	0.0751531	1	11	0.134466	0.000868025	-7.89888e-06	0.000781304	0.00638621	0.000942342	0.00645536	8.39392	2.75692e-07
1411.84	159.316	24.5968	161.203	-8.77662	35.8792	3.30613	-0.00143134	4.58307	0.106701	1	11	0.134442	0.000833993	-9.2263e-06	0.000941556	0.00613071	0.000946523	0.00620335	8.77662	-1.27765e-07
1000.32	166.027	25.7052	168.005	-8.80096	38.1567	3.30613	-0.00151652	6.18956	0.144896	1	11	0.134399	0.000799967	-1.01534e-05	0.000220421	0.00588211	0.000910699	0.00595219	8.80096	-2.29481e-07
707.509	172.879	25.7759	174.79	-8.4802	40.4375	3.30614	-0.00146993	8.72718	0.189788	1	11	0.134339	0.000768575	-1.09688e-05	0.000300547	0.0056586	0.000843684	0.00572115	8.4802	-5.8509e-07
501.444	179.315	24.9604	181.044	-7.92455	42.7092	3.30614	-0.0015072	12.7159	0.241701	1	11	0.134299	0.000741803	-1.2267e-05	0.000781304	0.00547076	0.00076152	0.00552351	7.92455	1.36348e-07
354.66	185.067	23.6661	186.574	-7.28735	44.988	3.30614	-0.00152845	18.9619	0.305094	1	11	0.134275	0.00071969	-1.35013e-05	0.000621051	0.00531652	0.000679869	0.00535981	7.28735	1.47459e-07
251.044	190.069	22.3568	191.379	-6.70857	47.2559	3.30614	-0.00153032	28.357	0.386982	1	11	0.134252	0.000701496	-1.60576e-05	0.000380673	0.00518946	0.000610409	0.00522524	6.70857	-8.14229e-07
177.781	194.558	21.3164	195.722	-6.25257	49.5463	3.30613	-0.00158437	41.9973	0.49816	1	11	0.134254	0.000685945	-1.73551e-05	0.000621051	0.0050789	0.000556461	0.00510929	6.25257	-9.36913e-07
125.846	198.722	20.6074	199.788	-5.92039	51.8204	3.30613	-0.00153722	61.3702	0.652931	1	11	0.134235	0.000671886	-1.80108e-05	0.000701178	0.00497861	0.00051628	0.00500531	5.92039	-5.92593e-08
89.116	202.704	20.2381	203.712	-5.70153	54.0918	3.30613	-0.00160655	88.2461	0.870962	1	11	0.13423	0.000658918	-1.93618e-05	0.00102168	0.0048846	0.00048768	0.00490889	5.70153	-4.47931e-07
63.0823	206.569	20.2136	207.556	-5.58882	56.3868	3.30613	-0.00159667	124.816	1.18382	1	11	0.134229	0.000646712	-2.04224e-05	0.000781304	0.00479508	0.000469217	0.00481798	5.58882	-5.81958e-07
44.6712	210.315	20.6627	211.327	-5.6111	58.6512	3.30613	-0.0015827	172.427	1.64842	1	11	0.134231	0.00063518	-2.04876e-05	0.000540925	0.00470932	0.000462674	0.00473199	5.6111	-4.4211e-07
31.6296	214.11	21.6189	215.198	-5.76567	60.8885	3.30613	-0.00155138	232.752	2.34899	1	11	0.134223	0.000623716	-2.08673e-05	0.000540925	0.00462337	0.000466826	0.00464687	5.76567	3.77221e-07
22.3854	218.073	23.2677	219.311	-6.09024	63.1354	3.30613	-0.00143564	305.564	3.43945	1	11	0.134221	0.000612013	-2.22661e-05	0.000540925	0.00453401	0.000483764	0.00455974	6.09024	-9.83806e-07
15.8576	222.333	25.6031	223.803	-6.56903	65.4629	3.30614	-0.00173144	392.005	5.13032	1	11	0.134221	0.000599728	-2.13824e-05	0.000701178	0.00443889	0.000511165	0.00446822	6.56903	2.56932e-06
11.2249	227.188	28.7916	229.005	-7.2226	67.8399	3.30613	-0.00173367	492.463	7.7842	1	11	0.134224	0.000586118	-2.22464e-05	0.000941556	0.00433206	0.000549003	0.00436671	7.2226	3.0743e-06
7.93953	232.729	32.7549	235.023	-8.01132	70.3827	3.30612	-0.00180935	611.997	11.8872	1	11	0.134221	0.000571096	-2.46576e-05	0.00102168	0.00421337	0.000593	0.0042549	8.01132	3.5684e-07
5.6205	239.186	37.4976	242.107	-8.90984	72.2477	3.30613	-0.00261361	755.165	18.1148	1	11	0.134218	0.000554376	-3.047e-05	0.000701178	0.00408056	0.000639717	0.0041304	8.90984	-2.04054e-06
3.97785	246.611	43.266	250.378	-9.95083	74.7832	3.30612	-0.00152538	924.751	27.6138	1	11	0.134221	0.000536075	-2.55234e-05	0.000540925	0.00393388	0.000690168	0.00399396	9.95083	-4.2135e-06
2.81836	255.382	49.9984	260.231	-11.0772	78.2816	3.30612	-0.00169812	1129.45	41.6929	1	11	0.134217	0.000515763	-2.49332e-05	0.000540925	0.00377115	0.00073831	0.00384274	11.0772	-2.83035e-07
1.99706	265.428	57.7115	271.63	-12.2668	83.6927	3.30614	0.000100494	1380.91	62.3357	1	12	0.134219	0.000494126	-3.20456e-05	0.000540925	0.00359743	0.000782183	0.00368148	12.2668	-1.05218e-05
1.41224	277.1	66.8163	285.042	-13.5568	90.4991	3.30613	0.000255127	1686.67	92.6781	1	12	0.134219	0.000470874	-4.93018e-05	0.000540925	0.00341051	0.000822366	0.00350826	13.5568	-2.80905e-05
1.00006	290.78	77.2182	300.858	-14.872	100.044	3.30614	-0.000255013	2060.97	135.765	1	12	0.134222	0.000446131	-3.05989e-05	0.000621051	0.00321248	0.000853093	0.00332383	14.872	1.3578e-05

File: DE_206_12_30.mpt
EC-Lab ASCII FILE
Nb header lines : 60

Potentio Electrochemical Impedance Spectroscopy

Run on channel : 12 (SN 41430)
User :
CE vs. WE compliance from -10 V to 10 V
Electrode connection : standard
Ewe ctrl range : min = -5.00 V, max = 5.00 V
Acquisition started on : 12/03/2020 16:52:47
Technique started on : 12/03/2020 16:52:48
Saved on :
	File : DE_206_12_30.mpr
	Directory : P:\Chemistry\Data\VMP3\Kyler\DOE\DE_206\
	Host : 10.0.4.64
Device : VMP3 (SN 1432)
Address : USB
EC-Lab for windows v11.33 (software)
Internet server v11.32 (firmware)
Command interpretor v11.33 (firmware)
Electrode material :
Initial state :
Electrolyte :
Comments :
Electrode surface area : 0.001 cm²
Characteristic mass : 0.001 g
Equivalent Weight : 0.000 g/eq.
Density : 0.000 g/cm3
Record Analogic IN 1
Cycle Definition : Charge/Discharge alternance
Mode                Single sine
E (V)               0.0000
vs.                 Eoc
tE (h:m:s)          0:00:0.0000
record              0
dI                  1.000
unit dI             mA
dt (s)              0.000
fi                  1.000
unit fi             MHz
ff                  1.000
unit ff             Hz
Nd                  20
Points              per decade
spacing             Logarithmic
Va (mV)             128.0
pw                  0.50
Na                  3
corr                0
E range min (V)     -5.000
E range max (V)     5.000
I Range             Auto
Bandwidth           5
nc cycles           0
goto Ns'            0
nr cycles           0
inc. cycle          1

freq/Hz	Re(Z)/Ohm	-Im(Z)/Ohm	|Z|/Ohm	Phase(Z)/deg	time/s	<Ewe>/V	<I>/mA	Cs/µF	Cp/µF	cycle number	I Range	|Ewe|/V	|I|/A	(Q-Qo)/mA.h	Analog IN 1/V	Re(Y)/Ohm-1	Im(Y)/Ohm-1	|Y|/Ohm-1	Phase(Y)/deg	dq/mA.h
1.00002e+06	215.203	-820.336	848.094	75.3005	1.40548	3.3162	0.00282742	-0.000194008	-0.000181516	1	12	0.000709305	8.36352e-07	6.81984e-07	-0.000391148	0.000299199	-0.00114052	0.00117911	-75.3005	6.81984e-07
707950	97.2758	32.5532	102.578	-18.5027	3.49548	3.31514	0.00136593	0.00690597	0.000695505	1	11	0.00361639	3.5255e-05	1.41222e-06	-0.000311016	0.00924474	0.00309373	0.00974866	18.5027	3.75097e-08
501206	106.993	30.2222	111.179	-15.7734	5.28349	3.31494	0.00103013	0.010507	0.000776396	1	11	0.0132567	0.000119238	2.14e-06	-0.000311016	0.0086558	0.002445	0.00899449	15.7734	3.05296e-07
354810	114.733	27.4876	117.98	-13.4729	7.07049	3.31486	0.000961595	0.0163188	0.000885817	1	11	0.0304065	0.000257726	3.62063e-06	-0.000631544	0.00824276	0.00197479	0.00847601	13.4729	5.80475e-07
251188	120.919	24.6055	123.397	-11.5019	8.85648	3.3147	0.000633245	0.0257507	0.00102387	1	11	0.0561192	0.000454786	2.64432e-06	-0.000391148	0.00794118	0.00161593	0.00810392	11.5019	4.67625e-07
177832	125.938	21.784	127.808	-9.81359	10.6445	3.31467	0.000763628	0.0410841	0.00119353	1	11	0.0910916	0.000712723	3.02836e-06	8.96435e-05	0.00770976	0.00133359	0.00782425	9.81359	7.04946e-08
125909	130.13	19.2278	131.543	-8.40516	12.1605	3.31463	0.000805352	0.0657403	0.00140463	1	11	0.135179	0.00102765	2.60564e-06	-0.000150752	0.00752045	0.00111122	0.0076021	8.40516	6.50272e-07
89129.3	133.69	16.9548	134.761	-7.22774	13.9485	3.3148	0.00121845	0.105319	0.0016671	1	11	0.129725	0.000962631	1.3951e-06	-0.000631544	0.00736157	0.000933604	0.00742054	7.22774	-3.55947e-07
63093.8	136.689	15.0057	137.511	-6.26483	15.7355	3.31491	0.00142797	0.168103	0.00200179	1	11	0.129486	0.000941643	3.30615e-06	-0.00047128	0.00722874	0.000793569	0.00727217	6.26483	8.95988e-08
44666.7	139.209	13.4417	139.857	-5.51524	17.3865	3.31495	0.00145964	0.265083	0.00244863	1	11	0.130373	0.000932192	2.06987e-06	0.000249907	0.00711708	0.000687207	0.00715018	5.51524	1.29964e-07
31621.1	141.36	12.3165	141.895	-4.97954	18.9015	3.31499	0.00137694	0.408654	0.0030789	1	11	0.1372	0.000966915	3.08095e-06	9.51163e-06	0.00702086	0.00061172	0.00704746	4.97954	4.85014e-07
22389	143.261	11.6704	143.736	-4.65715	20.4165	3.31499	0.00131716	0.609117	0.0040155	1	11	0.139635	0.000971471	2.24468e-06	-0.000631544	0.00693425	0.000564879	0.00695722	4.65715	4.33853e-07
15847.7	145.066	11.5323	145.524	-4.54529	21.9315	3.31502	0.001276	0.870837	0.00546894	1	11	0.135291	0.000929684	7.27391e-07	-0.000631544	0.00685011	0.000544564	0.00687172	4.54529	-5.6893e-07
11217.7	146.9	11.9231	147.383	-4.64026	23.3105	3.31503	0.00132591	1.18994	0.00778779	1	11	0.140754	0.000955022	1.67477e-06	-0.000150752	0.00676282	0.000548907	0.00678506	4.64026	1.04513e-06
7944	148.916	12.8298	149.467	-4.92414	24.915	3.31508	0.00153227	1.56157	0.0115056	1	11	0.130946	0.000876087	1.02005e-06	-0.000230884	0.00666574	0.000574284	0.00669043	4.92414	-2.87425e-07
5621.06	151.303	14.252	151.973	-5.3811	26.8263	3.31511	0.00146932	1.98667	0.0174721	1	11	0.132252	0.000870236	2.01922e-06	-0.000551412	0.00655113	0.000617083	0.00658013	5.3811	8.17787e-07
3981.27	154.24	16.0769	155.076	-5.95062	29.1057	3.31511	0.00154847	2.48654	0.0267247	1	11	0.132852	0.000856695	3.41423e-06	0.000249907	0.00641373	0.000668522	0.00644847	5.95062	7.97753e-07
2817.3	157.927	18.1588	158.967	-6.5592	31.386	3.31511	0.00142536	3.111	0.0405938	1	11	0.133095	0.000837245	5.07549e-06	-0.000551412	0.00624943	0.000718574	0.0062906	6.5592	1.06649e-06
1995.64	162.471	20.1918	163.721	-7.08435	33.6657	3.31509	0.00132069	3.94969	0.0600764	1	11	0.133172	0.000813411	6.26568e-06	-0.000551412	0.00606132	0.000753296	0.00610795	7.08435	9.29173e-07
1411.84	167.846	21.8261	169.259	-7.409	35.9472	3.31511	0.00133876	5.16486	0.0858836	1	11	0.133166	0.000786759	5.51221e-06	-0.000551412	0.00585879	0.000761859	0.00590811	7.409	-2.53732e-07
1000.32	173.773	22.7157	175.252	-7.44748	38.2247	3.31512	0.00141084	7.00416	0.117674	1	11	0.133131	0.000759653	5.54755e-06	-7.06203e-05	0.00565794	0.000739607	0.00570608	7.44748	-2.61882e-07
707.509	179.893	22.6967	181.319	-7.19087	40.5045	3.31512	0.00132032	9.91119	0.155297	1	11	0.133101	0.000734072	5.55419e-06	-0.000230884	0.00547175	0.000690357	0.00551513	7.19087	-3.61654e-07
501.444	185.637	21.8277	186.916	-6.70618	42.7762	3.31512	0.00129499	14.5409	0.198295	1	11	0.133074	0.000711947	5.43384e-06	0.000169775	0.00531339	0.00062476	0.00534999	6.70618	-2.06784e-07
354.66	190.748	20.4196	191.838	-6.11023	45.0559	3.31511	0.00127525	21.9767	0.248992	1	11	0.133047	0.000693539	6.94762e-06	-0.00047128	0.00518311	0.000554851	0.00521272	6.11023	1.66418e-07
251.044	195.055	18.904	195.968	-5.53563	47.3249	3.31511	0.00127841	33.5363	0.31207	1	11	0.133033	0.00067885	6.93896e-06	-0.000311016	0.00507906	0.000492246	0.00510286	5.53563	-3.22315e-07
177.781	198.711	17.6523	199.493	-5.07649	49.6173	3.31512	0.00120298	50.7147	0.397081	1	11	0.133024	0.000666812	8.49853e-06	-7.06203e-05	0.00499304	0.000443552	0.00501271	5.07649	9.29443e-07
125.846	201.945	16.8073	202.643	-4.7576	51.8924	3.31511	0.00130448	75.246	0.517626	1	11	0.133018	0.000656415	8.89645e-06	-0.000150752	0.00491778	0.000409293	0.00493478	4.7576	-2.2806e-07
89.116	204.953	16.4126	205.609	-4.57846	54.1637	3.31511	0.00126574	108.815	0.693355	1	11	0.133018	0.000646946	9.78302e-06	-7.06203e-05	0.00484807	0.000388232	0.00486359	4.57846	5.51884e-07
63.0823	207.865	16.5134	208.52	-4.5422	56.4598	3.31511	0.00127208	152.784	0.958195	1	11	0.133013	0.000637893	1.05291e-05	-0.000150752	0.00478065	0.000379788	0.00479571	4.5422	6.23474e-07
44.6712	210.795	17.081	211.486	-4.63263	58.7242	3.3151	0.00128679	208.583	1.36064	1	11	0.133013	0.000628943	1.1048e-05	8.96435e-05	0.004713	0.0003819	0.00472844	4.63263	5.74813e-07
31.6296	213.841	18.205	214.615	-4.86605	60.9614	3.31511	0.00137451	276.399	1.98884	1	11	0.133009	0.000619758	1.20798e-05	-0.000311016	0.00464272	0.00039525	0.00465951	4.86605	3.40671e-08
22.3854	217.097	19.9304	218.01	-5.24529	63.2084	3.31511	0.0011702	356.729	2.98139	1	11	0.133012	0.000610118	1.27547e-05	-0.000871939	0.00456774	0.000419338	0.00458695	5.24529	2.05393e-06
15.8576	220.724	22.3507	221.852	-5.78211	65.5369	3.31511	0.00125922	449.048	4.5577	1	11	0.133013	0.000599556	1.16135e-05	-0.000551412	0.00448457	0.000454111	0.0045075	5.78211	-2.04953e-06
11.2249	224.863	25.445	226.298	-6.45601	67.9139	3.3151	0.00137507	557.233	7.04499	1	11	0.133009	0.000587761	1.48158e-05	9.51163e-06	0.00439093	0.000496868	0.00441895	6.45601	3.10339e-07
7.93953	229.74	29.3425	231.607	-7.27843	70.4567	3.31509	0.00138112	683.169	10.9653	1	11	0.133009	0.00057429	1.14779e-05	-0.000551412	0.00428288	0.00054701	0.00431767	7.27843	-5.37462e-06
5.6205	235.379	34.0586	237.831	-8.23336	72.3216	3.31509	0.000798449	831.416	17.0504	1	11	0.133012	0.00055927	1.82656e-05	-0.000791807	0.00416134	0.000602131	0.00420467	8.23336	4.22809e-06
3.97785	242.087	39.6664	245.315	-9.30533	74.8572	3.3151	0.00122188	1008.67	26.3722	1	11	0.133006	0.000542184	1.03683e-05	8.96435e-05	0.00402275	0.000659135	0.00407639	9.30533	-5.52061e-06
2.81836	249.869	46.2408	254.112	-10.4845	78.3557	3.3151	0.00144598	1221.23	40.4389	1	11	0.133006	0.000523417	9.21512e-06	-7.06203e-05	0.00386957	0.000716103	0.00393527	10.4845	-1.25972e-05
1.99706	259.114	53.8435	264.649	-11.7389	83.2177	3.3151	0.00113881	1480.12	61.2661	1	11	0.133009	0.000502586	1.15931e-05	-7.06203e-05	0.00369955	0.000768761	0.00377858	11.7389	-7.94754e-06
1.41224	269.903	62.7631	277.105	-13.0909	90.6341	3.31511	-0.000139592	1795.59	92.1146	1	12	0.133011	0.000480001	2.23579e-05	-7.06203e-05	0.00351496	0.000817365	0.00360874	13.0909	1.34965e-05
1.00006	282.506	73.3295	291.868	-14.551	100.18	3.31511	8.23505e-05	2170.27	136.993	1	12	0.133009	0.000455715	3.45335e-05	-7.06203e-05	0.00331631	0.000860806	0.00342621	14.551	2.53529e-05