Folder: EIS_Manager/utils (part 4)

File: DE_206_7_30.mpt
EC-Lab ASCII FILE
Nb header lines : 60

Potentio Electrochemical Impedance Spectroscopy

Run on channel : 7 (SN 41379)
User :
CE vs. WE compliance from -10 V to 10 V
Electrode connection : standard
Ewe ctrl range : min = -10.00 V, max = 10.00 V
Acquisition started on : 12/03/2020 16:53:31
Technique started on : 12/03/2020 16:53:33
Saved on :
	File : DE_206_7_30.mpr
	Directory : P:\Chemistry\Data\VMP3\Kyler\DOE\DE_206\
	Host : 10.0.4.64
Device : VMP3 (SN 1432)
Address : USB
EC-Lab for windows v11.33 (software)
Internet server v11.32 (firmware)
Command interpretor v11.33 (firmware)
Electrode material :
Initial state :
Electrolyte :
Comments :
Electrode surface area : 0.001 cm²
Characteristic mass : 0.001 g
Equivalent Weight : 0.000 g/eq.
Density : 0.000 g/cm3
Record Analogic IN 1
Cycle Definition : Charge/Discharge alternance
Mode                Single sine
E (V)               0.0000
vs.                 Eoc
tE (h:m:s)          0:00:0.0000
record              0
dI                  1.000
unit dI             mA
dt (s)              0.000
fi                  1.000
unit fi             MHz
ff                  1.000
unit ff             Hz
Nd                  20
Points              per decade
spacing             Logarithmic
Va (mV)             128.0
pw                  0.50
Na                  3
corr                0
E range min (V)     -10.000
E range max (V)     10.000
I Range             Auto
Bandwidth           5
nc cycles           0
goto Ns'            0
nr cycles           0
inc. cycle          1

freq/Hz	Re(Z)/Ohm	-Im(Z)/Ohm	|Z|/Ohm	Phase(Z)/deg	time/s	<Ewe>/V	<I>/mA	Cs/µF	Cp/µF	cycle number	I Range	|Ewe|/V	|I|/A	(Q-Qo)/mA.h	Analog IN 1/V	Re(Y)/Ohm-1	Im(Y)/Ohm-1	|Y|/Ohm-1	Phase(Y)/deg	dq/mA.h
1.00002e+06	119.101	75.9986	141.283	-32.542	2.96347	3.33283	-0.000691654	0.00209414	0.000605951	1	11	0.000185278	1.3114e-06	-3.89761e-05	0.00092617	0.00596673	0.00380737	0.00707799	32.542	-3.89761e-05
707950	138.687	73.0268	156.739	-27.7694	4.75048	3.33172	-0.00247113	0.00307847	0.000668263	1	11	0.00523283	3.33857e-05	-4.02185e-05	0.00100632	0.00564525	0.00297255	0.00638004	27.7694	-5.48405e-07
501206	160.534	73.2876	176.472	-24.5378	6.53949	3.33151	-0.00256135	0.00433285	0.000747281	1	11	0.0185225	0.00010496	-4.14685e-05	0.00100632	0.00515486	0.00235332	0.00566663	24.5378	-4.70444e-07
354810	180.812	71.0526	194.272	-21.453	8.32449	3.33142	-0.00260041	0.00631312	0.000844472	1	11	0.0411556	0.000211846	-4.2025e-05	0.00148724	0.0047908	0.00188261	0.00514743	21.453	-5.98777e-08
251188	198.671	66.3899	209.47	-18.4781	10.1095	3.33129	-0.00280224	0.00954377	0.000958695	1	11	0.0737982	0.000352309	-4.41618e-05	0.00116663	0.00452783	0.00151307	0.00477395	18.4781	-8.40093e-07
177832	213.9	60.4913	222.289	-15.791	11.7615	3.33125	-0.00271983	0.0147951	0.00109564	1	11	0.1168	0.000525442	-4.59311e-05	0.00092617	0.00432887	0.00122421	0.00449865	15.791	-4.45337e-07
125909	226.812	54.3474	233.232	-13.4749	13.4145	3.33128	-0.00265938	0.0232586	0.00126289	1	11	0.12992	0.000557043	-4.6996e-05	0.000605557	0.00416955	0.000999086	0.00428758	13.4749	-3.93392e-07
89129.3	237.766	48.4353	242.649	-11.5142	15.2025	3.3313	-0.002675	0.036867	0.00146894	1	11	0.129625	0.000534208	-4.82139e-05	0.00092617	0.00403824	0.00082263	0.00412118	11.5142	-1.32844e-06
63093.8	246.932	43.0756	250.661	-9.89531	16.8535	3.33134	-0.00251893	0.0585601	0.00172939	1	11	0.140416	0.000560186	-4.95822e-05	0.00100632	0.00393011	0.000685583	0.00398946	9.89531	1.29311e-07
44666.7	254.671	38.5605	257.574	-8.60993	18.5045	3.33135	-0.00257176	0.0924046	0.00207098	1	11	0.130008	0.00050474	-5.12427e-05	0.00100632	0.00383863	0.000581219	0.00388239	8.60993	-1.22797e-06
31621.1	261.3	35.0206	263.637	-7.63354	20.0205	3.33134	-0.00262738	0.14372	0.00253603	1	11	0.134959	0.000511913	-5.39824e-05	0.00140709	0.00375948	0.000503863	0.0037931	7.63354	-7.40247e-07
22389	267.131	32.574	269.11	-6.95233	21.5355	3.33135	-0.00253549	0.21823	0.0031974	1	11	0.132644	0.000492897	-5.59983e-05	0.00108648	0.00368863	0.000449792	0.00371596	6.95233	-5.13917e-07
15847.7	272.5	31.2768	274.289	-6.54762	22.9125	3.33136	-0.00259557	0.321093	0.00417505	1	11	0.139201	0.000507499	-5.79074e-05	0.000685711	0.00362201	0.000415726	0.00364579	6.54762	-7.22308e-07
11217.7	277.674	31.0772	279.407	-6.38597	24.4265	3.33137	-0.00254162	0.456534	0.00564784	1	11	0.130232	0.0004661	-5.82937e-05	0.00124678	0.0035568	0.000398076	0.003579	6.38597	3.37622e-08
7944	283.109	31.9854	284.91	-6.44589	25.894	3.33142	-0.00242053	0.626368	0.00789436	1	11	0.131859	0.000462811	-5.898e-05	0.00100632	0.00348769	0.000394036	0.00350988	6.44589	1.07692e-07
5621.06	289.113	33.9346	291.098	-6.69445	27.8063	3.33144	-0.0025952	0.834372	0.0113388	1	11	0.132649	0.000455687	-6.04751e-05	0.00132694	0.00341185	0.000400465	0.00343527	6.69445	-1.89095e-07
3981.27	296.066	36.7226	298.334	-7.07058	30.0857	3.33144	-0.00260059	1.08859	0.0164939	1	11	0.133009	0.00044584	-6.24982e-05	0.00148724	0.00332645	0.000412597	0.00335194	7.07058	-9.34207e-07
2817.3	304.359	39.9766	306.974	-7.48278	32.3639	3.33144	-0.00262459	1.41313	0.0239658	1	11	0.133159	0.000433779	-6.31675e-05	0.00164755	0.00322987	0.000424232	0.00325761	7.48278	-2.64801e-07
1995.64	314.259	43.1076	317.202	-7.81064	34.6437	3.33144	-0.00263724	1.85005	0.0341681	1	11	0.133202	0.000419929	-6.53588e-05	0.000846017	0.00312332	0.000428432	0.00315257	7.81064	-3.88271e-07
1411.84	325.688	45.3867	328.836	-7.93343	36.9242	3.33143	-0.00261715	2.48374	0.0473158	1	11	0.133203	0.000405076	-6.77251e-05	0.00092617	0.00301193	0.000419731	0.00304103	7.93343	-8.15459e-07
1000.32	337.996	45.9301	341.103	-7.73848	39.4537	3.33143	-0.000205406	3.46405	0.062807	1	12	0.133729	0.000392049	-6.80915e-05	0.00100632	0.00290497	0.000394755	0.00293167	7.73848	2.76203e-07
707.509	350.37	44.3433	353.165	-7.21309	41.7344	3.33143	-0.000182858	5.07294	0.0799763	1	12	0.133564	0.000378191	-6.77856e-05	0.00164755	0.00280913	0.000355528	0.00283154	7.21309	1.91518e-07
501.444	361.444	40.9674	363.758	-6.46651	44.0062	3.33142	-0.000213879	7.74746	0.0982675	1	12	0.133414	0.000366764	-6.76066e-05	0.00108648	0.00273159	0.000309608	0.00274908	6.46651	2.61207e-07
354.66	370.658	36.6252	372.463	-5.64316	46.286	3.33143	-0.000209857	12.2526	0.118474	1	12	0.133311	0.000357919	-6.8286e-05	0.00124678	0.00267182	0.000264007	0.00268483	5.64316	-1.27736e-07
251.044	377.867	32.3077	379.246	-4.88691	48.5549	3.33142	-0.000237004	19.6229	0.142408	1	12	0.133245	0.000351341	-6.78658e-05	0.00092617	0.00262723	0.000224628	0.00263681	4.88691	3.44963e-07
177.781	383.488	28.79	384.567	-4.29338	50.8463	3.33142	-0.000142883	31.0951	0.174274	1	12	0.1332	0.000346363	-6.79931e-05	0.00124678	0.00259303	0.00019467	0.00260033	4.29338	-3.2136e-07
125.846	388.064	26.3453	388.957	-3.8838	53.1214	3.33142	-0.000210956	48.0041	0.220233	1	12	0.133178	0.000342397	-6.79691e-05	0.000765864	0.00256507	0.000174141	0.00257098	3.8838	4.26258e-08
89.116	392.115	25.1417	392.92	-3.66868	55.3937	3.33143	-0.000170849	71.0346	0.290838	1	12	0.133164	0.000338909	-6.84971e-05	0.0015674	0.00253983	0.000162849	0.00254505	3.66868	-2.24737e-07
63.0823	396.024	25.0583	396.816	-3.62055	57.6898	3.33143	-0.000241883	100.684	0.401501	1	12	0.13315	0.000335546	-6.86144e-05	0.00092617	0.00251503	0.000159138	0.00252006	3.62055	-2.32307e-07
44.6712	400.118	26.0744	400.967	-3.72851	59.9542	3.33143	-0.000207102	136.64	0.577817	1	12	0.133149	0.000332069	-6.85416e-05	0.00164755	0.00248869	0.00016218	0.00249397	3.72851	-2.02145e-07
31.6296	404.604	28.1002	405.579	-3.97287	62.1915	3.33143	-0.000232033	179.068	0.859578	1	12	0.133146	0.000328287	-6.87411e-05	0.00132694	0.00245969	0.000170828	0.00246561	3.97287	1.23371e-07
22.3854	409.63	31.098	410.809	-4.34141	64.4384	3.33142	-0.000159827	228.625	1.31011	1	12	0.133138	0.000324087	-6.88567e-05	0.0015674	0.00242724	0.000184269	0.00243422	4.34141	-9.84332e-07
15.8576	415.478	35.0179	416.951	-4.8177	66.7669	3.33143	-0.000264021	286.611	2.02164	1	12	0.133139	0.000319316	-6.79023e-05	0.00148724	0.00238989	0.000201428	0.00239836	4.8177	1.32087e-06
11.2249	422.247	39.9488	424.133	-5.40466	69.1439	3.33141	-0.000357454	354.925	3.14876	1	12	0.133131	0.000313889	-6.92118e-05	0.00092617	0.00234727	0.000222075	0.00235775	5.40466	1.81563e-07
7.93953	430.209	45.8902	432.65	-6.08869	71.6867	3.33143	-0.000304622	436.822	4.91442	1	12	0.133134	0.000307717	-6.73296e-05	0.0015674	0.0022983	0.000245159	0.00231134	6.08869	2.85456e-06
5.6205	439.362	52.8955	442.535	-6.86488	73.5517	3.33141	-9.15869e-05	535.336	7.64835	1	12	0.133131	0.000300838	-7.10019e-05	0.00132694	0.00224351	0.000270099	0.00225971	6.86488	-2.17076e-06
3.97785	450.216	60.8412	454.308	-7.6962	76.0872	3.33142	-0.000266909	657.619	11.7942	1	12	0.13313	0.000293039	-6.63073e-05	0.00100632	0.00218132	0.000294779	0.00220115	7.6962	2.33453e-06
2.81836	462.637	70.1491	467.925	-8.62202	79.5847	3.33143	-0.000285906	805.01	18.0923	1	12	0.133128	0.000284508	-6.51628e-05	0.00132694	0.00211294	0.000320384	0.0021371	8.62202	6.30699e-06
1.99706	477.133	80.6333	483.899	-9.59209	84.4467	3.33143	-0.000180995	988.358	27.4432	1	12	0.133129	0.000275118	-6.67601e-05	0.00108648	0.00203766	0.000344355	0.00206655	9.59209	2.40073e-06
1.41224	493.788	92.7442	502.422	-10.6375	91.2531	3.33144	1.98309e-05	1215.14	41.4058	1	12	0.133129	0.000264975	-7.75549e-05	0.0017277	0.00195615	0.000367409	0.00199036	10.6375	-1.50889e-05
1.00006	513.35	106.551	524.291	-11.7258	100.799	3.33144	-0.000212198	1493.6	61.6885	1	12	0.133131	0.000253925	-7.18733e-05	0.00140709	0.00186753	0.000387625	0.00190734	11.7258	1.04896e-06

File: DE_206_8_30.mpt
EC-Lab ASCII FILE
Nb header lines : 60

Potentio Electrochemical Impedance Spectroscopy

Run on channel : 8 (SN 41406)
User :
CE vs. WE compliance from -10 V to 10 V
Electrode connection : standard
Ewe ctrl range : min = -5.00 V, max = 5.00 V
Acquisition started on : 12/03/2020 16:53:23
Technique started on : 12/03/2020 16:53:25
Saved on :
	File : DE_206_8_30.mpr
	Directory : P:\Chemistry\Data\VMP3\Kyler\DOE\DE_206\
	Host : 10.0.4.64
Device : VMP3 (SN 1432)
Address : USB
EC-Lab for windows v11.33 (software)
Internet server v11.32 (firmware)
Command interpretor v11.33 (firmware)
Electrode material :
Initial state :
Electrolyte :
Comments :
Electrode surface area : 0.001 cm²
Characteristic mass : 0.001 g
Equivalent Weight : 0.000 g/eq.
Density : 0.000 g/cm3
Record Analogic IN 1
Cycle Definition : Charge/Discharge alternance
Mode                Single sine
E (V)               0.0000
vs.                 Eoc
tE (h:m:s)          0:00:0.0000
record              0
dI                  1.000
unit dI             mA
dt (s)              0.000
fi                  1.000
unit fi             MHz
ff                  1.000
unit ff             Hz
Nd                  20
Points              per decade
spacing             Logarithmic
Va (mV)             128.0
pw                  0.50
Na                  3
corr                0
E range min (V)     -5.000
E range max (V)     5.000
I Range             Auto
Bandwidth           5
nc cycles           0
goto Ns'            0
nr cycles           0
inc. cycle          1

freq/Hz	Re(Z)/Ohm	-Im(Z)/Ohm	|Z|/Ohm	Phase(Z)/deg	time/s	<Ewe>/V	<I>/mA	Cs/µF	Cp/µF	cycle number	I Range	|Ewe|/V	|I|/A	(Q-Qo)/mA.h	Analog IN 1/V	Re(Y)/Ohm-1	Im(Y)/Ohm-1	|Y|/Ohm-1	Phase(Y)/deg	dq/mA.h
1.00002e+06	154.027	107.911	188.067	-35.0149	2.9635	3.32636	0.000583986	0.00147485	0.000485571	1	11	0.00017789	9.45886e-07	-2.01713e-05	0.00147992	0.00435486	0.00305099	0.00531726	35.0149	-2.01713e-05
707950	171.983	99.7792	198.832	-30.121	4.75048	3.3253	-0.000867981	0.00225309	0.000567395	1	11	0.00590778	2.97124e-05	-2.05627e-05	0.00115893	0.00435025	0.00252388	0.00502938	30.121	-1.91713e-07
501206	201.173	100.436	224.851	-26.5307	6.53849	3.32507	-0.000992998	0.00316165	0.000630817	1	11	0.0203011	9.02867e-05	-2.09583e-05	0.00115893	0.00397905	0.00198655	0.00444739	26.5307	-2.91661e-07
354810	228.538	97.5292	248.479	-23.1105	8.32449	3.32501	-0.00106435	0.00459928	0.000708566	1	11	0.044336	0.00017843	-2.13366e-05	0.00115893	0.00370152	0.00157963	0.00402449	23.1105	-4.53108e-07
251188	253.008	91.3361	268.99	-19.8496	10.1105	3.3249	-0.0011726	0.00693712	0.000799823	1	11	0.0785665	0.00029208	-2.22593e-05	0.00147992	0.00349674	0.00126233	0.00371762	19.8496	-6.59192e-07
177832	274.012	83.2831	286.389	-16.9061	11.7615	3.32484	-0.00128793	0.0107462	0.000908771	1	11	0.123318	0.000430595	-2.4086e-05	0.00147992	0.00334085	0.00101542	0.00349175	16.9061	-3.77217e-07
125909	292.01	74.7517	301.426	-14.3588	13.4145	3.32487	-0.00128793	0.0169099	0.00103997	1	11	0.129946	0.000431105	-2.35634e-05	0.00131943	0.00321393	0.000822736	0.00331757	14.3588	-2.55954e-07
89129.3	307.222	66.4131	314.319	-12.1981	15.2025	3.32493	-0.00118527	0.0268872	0.00120036	1	11	0.129624	0.000412397	-2.51684e-05	0.00123918	0.00310966	0.000672224	0.00318149	12.1981	-4.69289e-07
63093.8	319.967	58.7403	325.314	-10.4027	16.8535	3.32496	-0.00116217	0.0429435	0.00140012	1	11	0.139697	0.000429421	-2.4351e-05	0.00139967	0.00302343	0.000555049	0.00307396	10.4027	5.16976e-08
44666.7	330.574	52.063	334.649	-8.95015	18.5055	3.32498	-0.00120651	0.0684395	0.00165648	1	11	0.129898	0.000388163	-2.6425e-05	0.00139967	0.00295182	0.00046489	0.00298821	8.95015	-9.24773e-07
31621.1	339.596	46.7561	342.8	-7.83927	20.0205	3.32499	-0.00120837	0.107648	0.00200262	1	11	0.134212	0.000391518	-2.66217e-05	0.00147992	0.00288989	0.000397884	0.00291715	7.83927	-3.7416e-07
22389	347.362	42.9572	350.008	-7.04981	21.5345	3.32499	-0.00127936	0.165481	0.00249267	1	11	0.132204	0.000377718	-2.7561e-05	0.00147992	0.00283548	0.000350655	0.00285708	7.04981	-3.87789e-07
15847.7	354.415	40.5876	356.732	-6.53305	22.9135	3.32499	-0.00129054	0.247435	0.00320305	1	11	0.137971	0.000386763	-2.88924e-05	0.00156017	0.00278502	0.00031894	0.00280323	6.53305	-4.58848e-07
11217.7	361.164	39.8154	363.352	-6.291	24.4285	3.325	-0.00120875	0.35634	0.0042787	1	11	0.129346	0.000355979	-3.04132e-05	0.00131943	0.00273558	0.000301576	0.00275215	6.291	-9.30856e-07
7944	368.061	40.5539	370.288	-6.28763	25.897	3.32504	-0.0012529	0.494025	0.00592562	1	11	0.130782	0.00035319	-3.05923e-05	0.00099844	0.00268435	0.000295769	0.0027006	6.28763	4.63534e-08
5621.06	375.613	42.6582	378.028	-6.47929	27.8083	3.32507	-0.0013809	0.663743	0.00845195	1	11	0.131484	0.000347815	-3.16491e-05	0.00147992	0.00262841	0.000298507	0.00264531	6.47929	-5.36059e-07
3981.27	384.377	46.1548	387.138	-6.84712	30.3397	3.32506	6.86779e-05	0.866126	0.0123107	1	12	0.130758	0.000337755	-3.286e-05	0.00139967	0.00256463	0.000307953	0.00258306	6.84712	-9.10415e-08
2817.3	394.753	50.0952	397.919	-7.23232	32.618	3.32506	5.12044e-05	1.1277	0.0178729	1	12	0.132065	0.000331889	-3.20487e-05	0.00172066	0.00249308	0.000316378	0.00251307	7.23232	2.64998e-07
1995.64	407.008	54.0133	410.576	-7.55946	34.8967	3.32505	5.93446e-05	1.47651	0.0255536	1	12	0.132494	0.000322701	-3.19217e-05	0.00147992	0.00241443	0.000320415	0.0024356	7.55946	9.24347e-08
1411.84	421.329	57.0035	425.167	-7.70502	37.1762	3.32506	6.43742e-05	1.97758	0.0355482	1	12	0.132538	0.000311731	-3.2055e-05	0.00123918	0.00233078	0.000315342	0.00235202	7.70502	2.14119e-07
1000.32	436.925	57.9591	440.753	-7.55629	39.4537	3.32506	2.74334e-05	2.74511	0.0474693	1	12	0.132433	0.000300471	-3.17438e-05	0.00139967	0.00224914	0.000298354	0.00226885	7.55629	2.44456e-07
707.509	452.714	56.2698	456.197	-7.08522	41.7344	3.32506	4.92097e-05	3.99772	0.0608217	1	12	0.132295	0.000289995	-3.14537e-05	0.00172066	0.0021753	0.000270377	0.00219203	7.08522	2.83695e-07
501.444	467.117	52.1764	470.022	-6.37345	44.0062	3.32506	1.8435e-05	6.08308	0.074961	1	12	0.132186	0.000281233	-3.10155e-05	0.00131943	0.00211441	0.000236177	0.00212756	6.37345	1.04816e-07
354.66	479.24	46.6502	481.505	-5.55977	46.285	3.32506	-3.40601e-05	9.61956	0.0902941	1	12	0.132103	0.000274354	-3.11557e-05	0.000918193	0.00206705	0.000201211	0.00207682	5.55977	6.89682e-08
251.044	488.759	41.027	490.478	-4.79823	48.5539	3.32506	-5.29096e-07	15.4525	0.108119	1	12	0.132051	0.000269229	-3.15673e-05	0.00156017	0.00203168	0.000170542	0.00203883	4.79823	-2.91677e-07
177.781	496.115	36.2425	497.437	-4.17819	50.8443	3.32506	3.50694e-05	24.7011	0.131122	1	12	0.132016	0.000265393	-3.14763e-05	0.00123918	0.00200496	0.000146468	0.0020103	4.17819	2.68327e-07
125.846	502.047	32.7594	503.115	-3.73335	53.1194	3.32505	-2.80623e-05	38.6052	0.163676	1	12	0.132003	0.000262372	-3.14005e-05	0.00139967	0.0019834	0.00012942	0.00198762	3.73335	1.90967e-07
89.116	507.254	30.7776	508.187	-3.47216	55.3917	3.32506	1.14109e-05	58.027	0.21284	1	12	0.13199	0.000259728	-3.11711e-05	0.00115893	0.00196417	0.000119176	0.00196778	3.47216	-1.35009e-07
63.0823	512.12	30.2598	513.013	-3.38152	57.6878	3.32506	-1.71278e-05	83.3772	0.290082	1	12	0.131983	0.000257271	-3.10733e-05	0.00164042	0.00194587	0.000114976	0.00194927	3.38152	4.60147e-08
44.6712	517.127	31.0873	518.06	-3.44022	59.9522	3.32506	2.40966e-05	114.606	0.412681	1	12	0.131977	0.000254751	-3.14584e-05	0.00139967	0.0019268	0.00011583	0.00193028	3.44022	-7.56222e-09
31.6296	522.529	33.1643	523.58	-3.63163	62.1894	3.32505	2.1041e-05	151.725	0.60874	1	12	0.131969	0.000252051	-3.17802e-05	0.00147992	0.00190609	0.000120978	0.00190993	3.63163	-2.90359e-07
22.3854	528.56	36.4098	529.812	-3.94059	64.4364	3.32503	-0.000109042	195.271	0.922209	1	12	0.131976	0.000249099	-3.15903e-05	0.00107869	0.001883	0.00012971	0.00188746	3.94059	-1.48067e-08
15.8576	535.453	40.7954	537.005	-4.35687	66.7639	3.32504	5.8707e-05	246.021	1.41984	1	12	0.131968	0.000245749	-3.21749e-05	0.00107869	0.0018568	0.000141467	0.00186218	4.35687	-9.92509e-07
11.2249	543.519	46.3376	545.491	-4.87296	69.1409	3.32504	1.1708e-05	305.989	2.208	1	12	0.131974	0.000241936	-3.26855e-05	0.00099844	0.00182659	0.000155725	0.00183321	4.87296	-1.57728e-06
7.93953	552.785	53.0998	555.329	-5.48692	71.6817	3.32504	-2.39562e-05	377.513	3.45157	1	12	0.131969	0.000237641	-3.13831e-05	0.00188116	0.00179248	0.000172183	0.00180073	5.48692	6.75196e-07
5.6205	563.43	60.9317	566.715	-6.17222	73.5457	3.32503	0.000379545	464.731	5.37228	1	12	0.131972	0.000232872	-3.04238e-05	0.00131943	0.00175433	0.00018972	0.00176456	6.17222	-3.54835e-08
3.97785	575.821	70.3893	580.108	-6.96935	76.0812	3.32504	-0.000275151	568.414	8.36877	1	12	0.131968	0.000227489	-3.14997e-05	0.00156017	0.00171108	0.000209165	0.00172382	6.96935	3.00604e-06
2.81836	590.54	81.1001	596.083	-7.81964	79.5787	3.32505	-0.000143616	696.309	12.8894	1	12	0.131967	0.00022139	-3.20293e-05	0.00172066	0.00166202	0.000228249	0.00167762	7.81964	2.69838e-06
1.99706	607.425	93.6598	614.603	-8.76549	84.4407	3.32505	-0.000159767	850.895	19.7602	1	12	0.131964	0.000214715	-2.81718e-05	0.00115893	0.00160806	0.000247949	0.00162707	8.76549	8.2673e-06
1.41224	627.542	108.13	636.789	-9.77645	91.2472	3.32505	-2.7813e-05	1042.24	30.0514	1	12	0.131964	0.000207233	-2.75849e-05	0.00156017	0.00154757	0.000266657	0.00157038	9.77645	5.8041e-06
1.00006	650.409	124.527	662.223	-10.8387	100.793	3.32505	0.000140835	1277.99	45.1906	1	12	0.131964	0.000199275	-4.07465e-05	0.00147992	0.00148313	0.000283959	0.00151007	10.8387	-1.69575e-05