Folder: EIS_Manager/utils (part 7)

File: DE_206_13_30.mpt
EC-Lab ASCII FILE
Nb header lines : 60

Potentio Electrochemical Impedance Spectroscopy

Run on channel : 13 (SN 41494)
User :
CE vs. WE compliance from -10 V to 10 V
Electrode connection : standard
Ewe ctrl range : min = -10.00 V, max = 10.00 V
Acquisition started on : 12/03/2020 16:52:36
Technique started on : 12/03/2020 16:52:37
Saved on :
	File : DE_206_13_30.mpr
	Directory : P:\Chemistry\Data\VMP3\Kyler\DOE\DE_206\
	Host : 10.0.4.64
Device : VMP3 (SN 1432)
Address : USB
EC-Lab for windows v11.33 (software)
Internet server v11.32 (firmware)
Command interpretor v11.33 (firmware)
Electrode material :
Initial state :
Electrolyte :
Comments :
Electrode surface area : 0.001 cm²
Characteristic mass : 0.001 g
Equivalent Weight : 0.000 g/eq.
Density : 0.000 g/cm3
Record Analogic IN 1
Cycle Definition : Charge/Discharge alternance
Mode                Single sine
E (V)               0.0000
vs.                 Eoc
tE (h:m:s)          0:00:0.0000
record              0
dI                  1.000
unit dI             mA
dt (s)              0.000
fi                  1.000
unit fi             MHz
ff                  1.000
unit ff             Hz
Nd                  20
Points              per decade
spacing             Logarithmic
Va (mV)             128.0
pw                  0.50
Na                  3
corr                0
E range min (V)     -10.000
E range max (V)     10.000
I Range             Auto
Bandwidth           5
nc cycles           0
goto Ns'            0
nr cycles           0
inc. cycle          1

freq/Hz	Re(Z)/Ohm	-Im(Z)/Ohm	|Z|/Ohm	Phase(Z)/deg	time/s	<Ewe>/V	<I>/mA	Cs/µF	Cp/µF	cycle number	I Range	|Ewe|/V	|I|/A	(Q-Qo)/mA.h	Analog IN 1/V	Re(Y)/Ohm-1	Im(Y)/Ohm-1	|Y|/Ohm-1	Phase(Y)/deg	dq/mA.h
1.00002e+06	-0.524253	-3.41443	3.45445	98.729	1.9416	3.30198	0.0280567	-0.0466115	-0.045538	1	9	8.89817e-05	2.57586e-05	2.98328e-06	-0.000392772	-0.0439323	-0.286129	0.289482	-98.729	2.98328e-06
707950	0.326203	-3.80996	3.8239	85.1064	3.30448	3.30102	0.0095768	-0.0590061	-0.0585767	1	9	0.000100116	2.61816e-05	1.28668e-05	-7.2188e-05	0.0223087	-0.26056	0.261513	-85.1064	4.35063e-06
501206	2.96537	-3.53411	4.61339	50.0009	5.0925	3.30097	0.00644716	-0.0898512	-0.0527283	1	9	0.00116773	0.000253118	1.89718e-05	-0.000312626	0.139328	-0.16605	0.21676	-50.0009	2.20323e-06
354810	3.59543	-2.27799	4.25633	32.3575	6.87949	3.301	-0.00132107	-0.196912	-0.0564034	1	9	0.00364105	0.000855443	2.35748e-05	-0.000392772	0.198463	-0.125742	0.234944	-32.3575	2.27538e-07
251188	3.78307	-1.31691	4.00573	19.1933	8.66548	3.30093	-0.00381733	-0.481135	-0.0520012	1	9	0.0087889	0.00219408	2.05978e-05	-0.000793503	0.235766	-0.0820714	0.249643	-19.1933	-3.11341e-06
177832	3.91102	-0.596342	3.95622	8.66953	10.4525	3.30092	0.000597806	-1.50077	-0.0340992	1	9	0.0215493	0.00544693	1.63973e-05	-0.00023248	0.249878	-0.0381007	0.252766	-8.66953	5.103e-06
125909	4.01443	-0.0240111	4.0145	0.342693	12.2395	3.30091	0.00769574	-52.6442	-0.00188326	1	9	0.0653701	0.0162835	1.27862e-05	-0.00023248	0.249092	-0.00148987	0.249097	-0.342693	2.87951e-05
89129.3	4.11518	0.500427	4.14549	-6.93342	14.7055	3.30119	0.0447489	3.56828	0.0519982	1	9	0.119769	0.0288914	-1.68494e-05	-7.2188e-05	0.239462	0.0291198	0.241226	6.93342	-6.21516e-05
63093.8	4.23828	1.03946	4.36389	-13.78	16.4945	3.30126	0.0449353	2.42676	0.137687	1	9	0.13505	0.0309472	-5.60037e-05	-0.000392772	0.222558	0.0545832	0.229153	13.78	-7.07775e-06
44666.7	4.40303	1.63852	4.69802	-20.412	18.1465	3.30128	0.0364404	2.17463	0.26452	1	9	0.136682	0.0290935	-0.000148278	-0.000472919	0.19949	0.0742373	0.212856	20.412	-8.31653e-06
31621.1	4.64326	2.3311	5.19556	-26.6584	19.8285	3.30134	-0.00923499	2.15915	0.434648	1	10	0.135112	0.0260053	-0.000141772	-0.000553065	0.172012	0.0863565	0.192472	26.6584	-2.29999e-05
22389	4.95837	3.20905	5.90622	-32.9109	21.6165	3.30135	-0.00955935	2.21518	0.653947	1	10	0.130649	0.0221206	-0.000258367	-0.000472919	0.142141	0.0919936	0.169313	32.9109	-2.61888e-05
15847.7	5.41052	4.30843	6.91638	-38.5305	23.2685	3.30135	-0.0130193	2.33096	0.904516	1	10	0.129808	0.0187683	-0.000304416	-0.00023248	0.113105	0.0900662	0.144584	38.5305	-1.49638e-06
11217.7	6.03421	5.66008	8.27334	-43.1676	24.6465	3.30134	-0.0128834	2.50665	1.17321	1	10	0.131714	0.0159203	-0.000283715	-0.000633211	0.0881573	0.0826915	0.12087	43.1676	1.10078e-06
7944	6.94933	7.35592	10.1194	-46.6281	26.114	3.30138	-0.000960949	2.7236	1.43915	1	10	0.126863	0.0125366	-0.000285757	-0.000152334	0.0678627	0.0718333	0.0988199	46.6281	1.01895e-05
5621.06	8.25543	9.42959	12.5327	-48.7985	28.0253	3.30142	0.00640236	3.00268	1.69982	1	10	0.122283	0.00975709	-0.000285503	-0.000312626	0.0525591	0.0600346	0.0797911	48.7985	5.05347e-06
3981.27	10.081	11.892	15.5899	-49.7114	30.3047	3.30145	0.00891019	3.36159	1.95597	1	10	0.119246	0.00764889	-0.000289689	-0.000312626	0.0414779	0.0489288	0.0641439	49.7114	1.38225e-06
2817.3	12.592	14.7336	19.3813	-49.4813	32.5849	3.30145	0.00858777	3.83424	2.21579	1	10	0.11741	0.0060579	-0.000291246	-7.2188e-05	0.0335217	0.039223	0.051596	49.4813	3.81702e-06
1995.64	15.9276	17.8567	23.928	-48.2681	34.8647	3.30144	0.00768596	4.46619	2.48729	1	10	0.116349	0.00486246	-0.000280814	-0.000472919	0.0278187	0.031188	0.041792	48.2681	2.48108e-06
1411.84	20.2485	21.1361	29.2701	-46.2288	37.1462	3.30145	0.00885416	5.33347	2.78108	1	10	0.115738	0.00395415	-0.000280252	7.95815e-06	0.0236344	0.0246705	0.0341646	46.2288	-9.19949e-07
1000.32	25.6606	24.2966	35.3382	-43.4361	39.6747	3.30142	-0.00249291	6.5484	3.09555	1	11	0.118918	0.00336512	-0.000274504	-0.00119423	0.0205483	0.0194561	0.028298	43.4361	1.31068e-06
707.509	32.2135	27.1337	42.1183	-40.1078	41.9554	3.30143	-0.00217704	8.29045	3.44077	1	11	0.117155	0.00278156	-0.000273582	-0.000312626	0.0181592	0.0152957	0.0237427	40.1078	-2.21662e-07
501.444	39.7681	29.1602	49.3134	-36.251	44.2272	3.30143	-0.00216646	10.8845	3.8059	1	11	0.116176	0.00235586	-0.000274838	-0.000553065	0.0163532	0.0119911	0.0202784	36.251	1.37173e-06
354.66	48.0934	29.9448	56.6539	-31.9079	46.5069	3.30142	-0.00228858	14.9861	4.18667	1	11	0.115625	0.0020409	-0.000279547	-7.2188e-05	0.0149839	0.00932955	0.017651	31.9079	-1.38739e-06
251.044	56.4872	29.1825	63.58	-27.3218	48.7759	3.30143	-0.00225823	21.7244	4.57668	1	11	0.115327	0.00181389	-0.00027792	7.95815e-06	0.0139736	0.00721906	0.0157282	27.3218	1.63231e-06
177.781	63.7099	26.4563	68.9847	-22.5513	51.2882	3.30142	-0.00255029	33.838	4.9769	1	11	0.126705	0.00183671	-0.000280909	-0.000392772	0.0133876	0.00555936	0.014496	22.5513	-2.46005e-06
125.846	69.9617	23.3339	73.7503	-18.4448	53.5634	3.30141	-0.00235112	54.1994	5.42552	1	11	0.126604	0.00171666	-0.00028186	-7.2188e-05	0.0128627	0.00429002	0.0135593	18.4448	8.77211e-07
89.116	74.8214	20.0084	77.4505	-14.9715	55.8347	3.30142	-0.00216144	89.2589	5.95701	1	11	0.126549	0.00163394	-0.000282033	-0.000713357	0.0124732	0.00333552	0.0129115	14.9715	-1.56099e-06
63.0823	78.481	16.9479	80.2901	-12.1859	58.1308	3.30141	-0.00224111	148.866	6.63293	1	11	0.126522	0.00157581	-0.000282747	-0.000472919	0.0121742	0.00262901	0.0124548	12.1859	-8.60924e-07
44.6712	81.2589	14.4454	82.5329	-10.0802	60.3962	3.30141	-0.0021754	246.639	7.5556	1	11	0.126509	0.00153283	-0.000285825	7.95815e-06	0.0119293	0.00212069	0.0121164	10.0802	-9.00554e-07
31.6296	83.4635	12.5615	84.4035	-8.55896	62.6325	3.30141	-0.00244233	400.576	8.87256	1	11	0.126501	0.00149877	-0.000289221	0.00016825	0.0117159	0.00176328	0.0118479	8.55896	-1.62954e-06
22.3854	85.1511	11.2418	85.89	-7.52078	64.8794	3.30142	-0.00204771	632.442	10.8344	1	11	0.126497	0.00147278	-0.000289112	-0.000633211	0.0115426	0.00152388	0.0116428	7.52078	-3.68403e-06
15.8576	86.7745	10.4598	87.4026	-6.87326	67.2059	3.30141	-0.00226549	959.536	13.7422	1	11	0.126491	0.00144722	-0.000289251	7.95815e-06	0.0113591	0.00136922	0.0114413	6.87326	-2.3834e-07
11.2249	88.2825	10.1552	88.8647	-6.56194	69.5829	3.30142	-0.00268842	1396.21	18.2335	1	11	0.126489	0.00142338	-0.000297327	-0.000392772	0.0111793	0.00128597	0.0112531	6.56194	-6.86713e-06
7.93953	89.7151	10.353	90.3104	-6.58273	72.1267	3.30144	-0.00225536	1936.24	25.4457	1	11	0.12649	0.00140061	-0.00028578	-0.00023248	0.0109999	0.00126937	0.0110729	6.58273	1.25002e-05
5.6205	91.0574	11.0879	91.73	-6.94263	73.9907	3.30143	0.00170402	2553.85	37.314	1	11	0.126487	0.0013789	-0.000293526	-7.2188e-05	0.0108216	0.00131773	0.0109016	6.94263	-7.53027e-06
3.97785	92.5147	12.5368	93.3602	-7.71724	76.5262	3.30143	-0.00299994	3191.42	57.5486	1	11	0.126488	0.00135483	-0.00028321	-0.000553065	0.0106142	0.00143835	0.0107112	7.71724	2.18108e-05
2.81836	94.0885	14.7269	95.2341	-8.89587	80.0246	3.30144	-0.00302196	3834.52	91.696	1	11	0.126488	0.00132818	-0.000282562	-0.00023248	0.0103741	0.00162378	0.0105004	8.89587	3.40105e-05
1.99706	95.9962	17.927	97.6557	-10.578	84.8867	3.30144	-0.00185506	4445.5	149.81	1	11	0.126486	0.00129523	-0.000271148	-0.000713357	0.010066	0.0018798	0.0102401	10.578	4.71066e-05
1.41224	98.3823	22.2738	100.872	-12.7567	91.6932	3.30143	-0.000159971	5059.62	246.697	1	11	0.126486	0.00125392	-0.000305042	-0.000713357	0.00966883	0.00218903	0.00991353	12.7567	-2.3168e-05
1.00006	101.354	28.185	105.2	-15.5405	101.238	3.30142	-0.000274052	5646.44	405.305	1	11	0.126486	0.00120234	-0.000350774	-7.2188e-05	0.00915822	0.00254677	0.00950574	15.5405	-7.97281e-05

File: DE_206_14_30.mpt
EC-Lab ASCII FILE
Nb header lines : 60

Potentio Electrochemical Impedance Spectroscopy

Run on channel : 14 (SN 41308)
User :
CE vs. WE compliance from -10 V to 10 V
Electrode connection : standard
Ewe ctrl range : min = -5.00 V, max = 5.00 V
Acquisition started on : 12/03/2020 16:52:25
Technique started on : 12/03/2020 16:52:26
Saved on :
	File : DE_206_14_30.mpr
	Directory : P:\Chemistry\Data\VMP3\Kyler\DOE\DE_206\
	Host : 10.0.4.64
Device : VMP3 (SN 1432)
Address : USB
EC-Lab for windows v11.33 (software)
Internet server v11.32 (firmware)
Command interpretor v11.33 (firmware)
Electrode material :
Initial state :
Electrolyte :
Comments :
Electrode surface area : 0.001 cm²
Characteristic mass : 0.001 g
Equivalent Weight : 0.000 g/eq.
Density : 0.000 g/cm3
Record Analogic IN 1
Cycle Definition : Charge/Discharge alternance
Mode                Single sine
E (V)               0.0000
vs.                 Eoc
tE (h:m:s)          0:00:0.0000
record              0
dI                  1.000
unit dI             mA
dt (s)              0.000
fi                  1.000
unit fi             MHz
ff                  1.000
unit ff             Hz
Nd                  20
Points              per decade
spacing             Logarithmic
Va (mV)             128.0
pw                  0.50
Na                  3
corr                0
E range min (V)     -5.000
E range max (V)     5.000
I Range             Auto
Bandwidth           5
nc cycles           0
goto Ns'            0
nr cycles           0
inc. cycle          1

freq/Hz	Re(Z)/Ohm	-Im(Z)/Ohm	|Z|/Ohm	Phase(Z)/deg	time/s	<Ewe>/V	<I>/mA	Cs/µF	Cp/µF	cycle number	I Range	|Ewe|/V	|I|/A	(Q-Qo)/mA.h	Analog IN 1/V	Re(Y)/Ohm-1	Im(Y)/Ohm-1	|Y|/Ohm-1	Phase(Y)/deg	dq/mA.h
1.00002e+06	-0.979463	-2.98923	3.14561	108.142	1.8446	3.27421	-0.0563454	-0.0532417	-0.0480797	1	9	9.00386e-05	2.86236e-05	-2.79985e-06	-0.000100609	-0.098987	-0.3021	0.317903	-108.142	-2.79985e-06
707950	0.880066	-4.04237	4.13706	77.7178	3.3636	3.27332	-0.0600953	-0.0556137	-0.053097	1	9	7.97602e-05	1.92794e-05	-2.15892e-05	-0.000100609	0.0514199	-0.236185	0.241717	-77.7178	-2.69865e-06
501206	1.70182	-3.19666	3.62144	61.9703	4.99548	3.27318	-0.051868	-0.0993361	-0.0773993	1	9	0.000609751	0.000168373	-3.96062e-05	-0.000340934	0.129763	-0.243744	0.276133	-61.9703	-5.80678e-06
354810	2.25479	-2.1767	3.13403	43.9905	6.78249	3.27313	-0.0553939	-0.206075	-0.0994074	1	9	0.00235454	0.000751282	-6.22003e-05	-0.000340934	0.229562	-0.221613	0.319078	-43.9905	-8.08378e-06
251188	2.42813	-1.34575	2.77612	28.9967	8.56749	3.273	-0.0553193	-0.470824	-0.110639	1	9	0.00580731	0.00209188	-9.28624e-05	-0.000981802	0.315061	-0.174617	0.360215	-28.9967	-1.26521e-05
177832	2.5239	-0.706381	2.62089	15.6357	10.3555	3.27295	-0.056308	-1.26699	-0.0920349	1	9	0.0139516	0.00532322	-9.11944e-05	-0.000421043	0.367431	-0.102835	0.38155	-15.6357	5.22337e-06
125909	2.5924	-0.189955	2.59935	4.19078	12.1425	3.273	-0.0344615	-6.65446	-0.0355372	1	9	0.0404023	0.0155433	-6.75965e-05	-0.000741477	0.383683	-0.0281139	0.384712	-4.19078	2.41267e-05
89129.3	2.66104	0.278964	2.67563	-5.98461	14.2015	3.27325	0.0114699	6.40105	0.0695821	1	9	0.1192	0.0445504	-0.000349479	-0.000340934	0.371707	0.0389671	0.373744	5.98461	-9.79303e-05
63093.8	2.74573	0.752077	2.84687	-15.318	15.9905	3.27348	0.0427749	3.35406	0.234077	1	9	0.133971	0.047059	-0.000316532	-0.000421043	0.338784	0.0927954	0.351263	15.318	2.43613e-05
44666.7	2.86155	1.27013	3.13077	-23.9346	17.7795	3.27343	0.0148094	2.80535	0.461725	1	9	0.132772	0.0424087	-0.000159068	-0.000100609	0.291944	0.129583	0.319411	23.9346	4.99653e-05
31621.1	3.0232	1.87976	3.55995	-31.8725	19.1585	3.27344	0.0193988	2.67756	0.746547	1	9	0.139532	0.0391949	-0.000140159	-0.00058126	0.23855	0.148325	0.280903	31.8725	1.30575e-05
22389	3.2474	2.63301	4.18071	-39.0354	20.5375	3.27346	0.0323085	2.6998	1.07087	1	9	0.134873	0.0322607	-0.000141691	-0.000100609	0.185796	0.150644	0.239194	39.0354	-3.56089e-06
15847.7	3.57959	3.57829	5.06138	-44.9896	22.2185	3.27354	-0.00742538	2.80659	1.40279	1	10	0.130346	0.025753	-6.08181e-05	-0.000421043	0.139732	0.139681	0.197575	44.9896	6.84556e-06
11217.7	4.04407	4.79843	6.2753	-49.8762	23.5985	3.27355	-0.00778176	2.95676	1.7288	1	10	0.134812	0.0214829	-5.98091e-05	-0.000340934	0.102695	0.121851	0.159355	49.8762	8.61638e-07
7944	4.71233	6.3561	7.9124	-53.4472	25.067	3.27356	-0.00207045	3.15203	2.03402	1	10	0.126004	0.0159248	-4.13347e-05	-0.000340934	0.0752695	0.101525	0.126384	53.4472	-8.0913e-07
5621.06	5.68016	8.32982	10.0822	-55.7097	26.9793	3.27358	0.00773694	3.39912	2.32023	1	10	0.118579	0.0117613	-2.95958e-05	-2.05e-05	0.0558795	0.081946	0.099185	55.7097	9.31754e-06
3981.27	7.07519	10.7577	12.8758	-56.6676	29.4797	3.2736	0.0107773	3.71604	2.59399	1	10	0.12654	0.00982772	-2.26605e-05	-0.000180717	0.0426767	0.064889	0.0776652	56.6676	-4.94673e-06
2817.3	9.04266	13.7215	16.4332	-56.6146	31.7599	3.2736	0.0106728	4.11704	2.87043	1	10	0.123754	0.00753076	-3.29987e-05	-2.05e-05	0.0334852	0.0508111	0.0608525	56.6146	-1.87916e-06
1995.64	11.76	17.2059	20.8409	-55.648	34.0397	3.2736	0.0110122	4.63511	3.15926	1	10	0.122216	0.00586427	-2.20013e-05	-0.000100609	0.0270754	0.0396138	0.0479827	55.648	-9.63747e-07
1411.84	15.4488	21.2025	26.2338	-53.9217	36.3212	3.27359	0.010337	5.31677	3.47296	1	10	0.121374	0.00462664	-1.59019e-05	-0.000661368	0.0224477	0.030808	0.0381187	53.9217	-5.35995e-07
1000.32	20.3178	25.5363	32.633	-51.4927	38.8497	3.27359	-0.000441918	6.23051	3.81526	1	11	0.125465	0.00384474	-1.16025e-05	-0.000421043	0.0190793	0.0239797	0.0306438	51.4927	-1.90625e-07
707.509	26.6001	30.1499	40.2067	-48.5793	41.1305	3.27359	-0.000713693	7.4611	4.19543	1	11	0.123124	0.00306228	-1.17685e-05	0.000299934	0.0164546	0.0186504	0.0248715	48.5793	1.26234e-06
501.444	34.4946	34.5964	48.8547	-45.0844	43.4022	3.27359	-0.00061312	9.17418	4.60061	1	11	0.121862	0.00249438	-1.00856e-05	-0.000260826	0.0144523	0.014495	0.0204689	45.0844	-1.30393e-06
354.66	44.2261	38.3156	58.5152	-40.9042	45.6819	3.27358	-0.000641871	11.7121	5.02164	1	11	0.121167	0.00207069	-7.48086e-06	-0.000741477	0.0129164	0.0111902	0.0170896	40.9042	1.17141e-06
251.044	55.4633	40.4178	68.6278	-36.0819	47.9509	3.27358	-0.000609769	15.6855	5.44054	1	11	0.120781	0.00175994	-1.00911e-05	-0.000421043	0.0117762	0.00858168	0.0145714	36.0819	-1.66927e-06
177.781	67.331	40.155	78.3957	-30.8111	50.2422	3.27359	-0.000595402	22.2943	5.8491	1	11	0.120573	0.00153801	-1.34241e-05	-0.000180717	0.0109555	0.00653364	0.0127558	30.8111	-3.09769e-07
125.846	78.5092	37.4271	86.974	-25.4882	52.5174	3.2736	-0.000510855	33.7906	6.25733	1	11	0.120463	0.00138505	-1.46076e-05	-2.05e-05	0.0103787	0.00494774	0.0114977	25.4882	-1.18408e-06
89.116	87.8386	32.9767	93.8248	-20.5773	54.7887	3.27359	-0.000632929	54.1574	6.69016	1	11	0.120396	0.0012832	-1.47947e-05	-0.000260826	0.00997816	0.00374603	0.0106582	20.5773	5.07026e-07
63.0823	94.9451	27.943	98.9716	-16.3995	57.0849	3.27358	-0.000469619	90.29	7.19721	1	11	0.120371	0.00121622	-1.51945e-05	-0.000340934	0.00969284	0.00285267	0.0101039	16.3995	5.54851e-07
44.6712	100.08	23.2434	102.744	-13.075	59.3502	3.27358	-0.00043117	153.282	7.84476	1	11	0.120352	0.00117138	-1.56958e-05	0.000219826	0.0094806	0.00220185	0.00973293	13.075	5.52618e-07
31.6296	103.798	19.3638	105.589	-10.5672	61.5864	3.27359	-0.000580489	259.859	8.73942	1	11	0.120339	0.0011397	-1.56956e-05	-0.000100609	0.0093101	0.00173682	0.00947072	10.5672	-6.12893e-07
22.3854	106.628	16.4041	107.882	-8.74603	63.8334	3.27357	-0.00127463	433.415	10.0209	1	11	0.120335	0.00111543	-1.6002e-05	-0.000260826	0.00916157	0.00140945	0.00926935	8.74603	3.1375e-06
15.8576	108.919	14.3114	109.855	-7.4855	66.161	3.27359	-0.000241912	701.297	11.9022	1	11	0.120336	0.00109541	-2.0149e-05	-0.00058126	0.00902534	0.00118589	0.00910292	7.4855	-4.91033e-06
11.2249	110.88	12.9777	111.637	-6.67571	68.5379	3.27359	-0.000177891	1092.55	14.7647	1	11	0.120332	0.00107789	-1.69877e-05	-0.000100609	0.00889688	0.00104132	0.00895762	6.67571	-1.95442e-06
7.93953	112.653	12.3256	113.325	-6.244	71.0817	3.27359	0.000141181	1626.37	19.2388	1	11	0.120332	0.00106183	-2.31017e-05	5.96085e-05	0.00877182	0.00095974	0.00882417	6.244	-9.4549e-06
5.6205	114.262	12.3203	114.924	-6.15413	72.9457	3.27357	-0.0012093	2298.4	26.4145	1	11	0.120326	0.001047	-1.07947e-05	-2.05e-05	0.00865124	0.000932818	0.00870139	6.15413	7.35882e-06
3.97785	115.875	13.0675	116.609	-6.43423	75.4812	3.27359	-0.000681653	3061.81	38.4503	1	11	0.120327	0.00103188	-2.80028e-05	0.000139717	0.00852164	0.000961011	0.00857566	6.43423	-5.81805e-06
2.81836	117.522	14.6169	118.428	-7.0898	78.9797	3.27359	0.000461649	3863.38	58.8535	1	11	0.12033	0.00101606	-3.36242e-05	-0.000340934	0.0083794	0.00104219	0.00844396	7.0898	-1.96853e-05
1.99706	119.357	17.0566	120.57	-8.13273	83.8417	3.27359	-0.000519038	4672.36	93.5073	1	11	0.12033	0.000998009	-2.65455e-05	-0.000180717	0.00821055	0.00117332	0.00829396	8.13273	-2.42039e-06
1.41224	121.414	20.7161	123.169	-9.68279	90.6482	3.27359	-0.000883549	5440.06	153.894	1	11	0.120328	0.000976939	1.05738e-05	-0.000100609	0.00800329	0.00136555	0.00811895	9.68279	5.63209e-05
1.00006	124.105	25.8282	126.764	-11.7564	100.191	3.27359	0.000592178	6161.68	255.797	1	11	0.120328	0.000949234	-2.02041e-05	-0.000340934	0.00772321	0.00160732	0.00788869	11.7564	-1.7351e-05