Folder: EIS_Manager/utils

Note: utils/output.txt
,file,fit_Rs,fit_R1,fit_n1,fit_Q1,fit_R2,fit_n2,fit_Q2,fit_Q3,fit_n3
0,copy.mpt,0.02666617202667179,732.3680378720734,0.7697756962908995,2.5300329649663447e-07,474.35430900127557,0.9076548713861109,8.120855367221847e-09,5.507495163376064e-06,0.7953438019804473
0,DE_104_10_30.mpt,138.72017898857754,6710.907025549689,0.7886947849304764,9.344478078987529e-09,90279.66467298422,0.5160179012976224,4.412627366173816e-06,2.8936717811345327e-07,0.8534129377380223
0,DE_104_10_30orig.mpt,151.9538199449219,6616.935486257347,0.7918972455395977,8.980059069962909e-09,78324.46588679307,0.5537897535944764,2.3783048884081226e-06,1.9591469339330648e-07,0.9459406882738085
0,DE_104_1_30.mpt,187.45853416103236,25009.482762994336,0.6406250015358842,6.807568200746556e-05,6379.341990058857,0.757598780020904,1.4828147295697924e-08,4.931074177831895e-07,0.7050809724361669
0,DE_104_1_30_trimmed.mpt,185.40242341284994,30619.99999999946,0.9999999999926619,3.6143709128272363e-07,6340.243898512548,0.7580638413793068,1.4855673249547507e-08,7.364200321348657e-07,0.6686972765806396
0,DE_140_1_30.mpt,0.0978853000209721,1114.7206139445511,0.7443511073704376,5.577765793091105e-08,1562.4920171878218,0.5976948225883123,1.2932362438447532e-06,4.8977271473574784e-06,0.7833631682493147
0,DE_40_10_60.mpt,37.83889728096123,78.94696942122089,0.9144914196346935,4.54225411641046e-06,71.59314807553841,0.9581557329519766,4.366558593649206e-09,7.846793458602397e-07,0.9999980767367138
0,DE_40_11_60.mpt,39.440853636205375,181.2524835048267,0.8776896453826759,8.71759539748479e-06,69.5595135719138,0.9999999996908923,2.2590224204588337e-09,1.4864988661812407e-06,0.9142210190030605
0,DE_40_12_60.mpt,45.87253697820461,14.142794970940242,0.999999999997393,9.532004701911735e-06,24.98724899184654,0.9999999749562665,7.213202149969344e-09,1.9351821530058654e-06,0.9458675116156666
0,DE_40_13_60.mpt,0.04948688100002747,14.307842218287822,0.9999999999996644,1.1334312799475998e-05,75.87146163173753,0.9999999878276479,1.4628232847258006e-09,2.4812761127966375e-06,0.9116285888210941
0,DE_40_14_60.mpt,35.860537527709425,2.14570303664353,0.4495293041199002,0.0009999926516431592,34.02968167405046,0.9999999808003213,3.808859070586479e-09,1.974897005333265e-06,0.9356339207159905
0,DE_40_15_60.mpt,44.677299369092786,31.983396462827976,0.9999999999999991,4.337520340902401e-09,25.71527420609309,0.9161428380180531,1.551241167884848e-05,1.4605515281798653e-06,0.9755467215683046
0,DE_40_2_60.mpt,50.02994688337366,15.864281628250714,0.990407053039276,5.404630867795523e-06,12.483972984366416,1.0,1.3153182828962163e-08,1.3073644182272082e-06,0.9999999967949464
0,DE_40_3_60.mpt,53.224803502339434,51.78564573595774,0.9999999990698013,3.0363379775466547e-09,46.641306343116675,0.9162458228568577,1.2845138189478023e-05,1.7394991682329052e-06,0.9571206670459037
0,DE_40_4_60.mpt,47.53798004149079,75.3573582941441,0.9999999999998256,2.6193420431530613e-09,1639.9464656610298,0.8348844928628311,0.0009999271295305465,3.198663571147287e-06

Note: README.md
---
description: >-
  The EIS Manager is an application that serves as a fitter for mpt files. It
  requires updated python 3.x and pip.
---

# Overview

## Finding the Application File

The application is an exe file in the Release folder. If you click into the bin folder, there will be two folders, one Debug and one Release; inside the Release folder will be the application file. You can click on it to get it to start running. 

The output will be a csv file that gives the coefficients of the fitted equation.

Upon finding the application, opening the application should look like this

![This is the application open without any mpt files loaded.](.gitbook/assets/image%20%288%29.png)

File: DE_206_1_30.mpt
EC-Lab ASCII FILE
Nb header lines : 60

Potentio Electrochemical Impedance Spectroscopy

Run on channel : 1 (SN 20909)
User :
CE vs. WE compliance from -10 V to 10 V
Electrode connection : standard
Ewe ctrl range : min = -10.00 V, max = 10.00 V
Acquisition started on : 12/03/2020 16:54:43
Technique started on : 12/03/2020 16:54:44
Saved on :
	File : DE_206_1_30.mpr
	Directory : P:\Chemistry\Data\VMP3\Kyler\DOE\DE_206\
	Host : 10.0.4.64
Device : VMP3 (SN 1432)
Address : USB
EC-Lab for windows v11.33 (software)
Internet server v11.32 (firmware)
Command interpretor v11.33 (firmware)
Electrode material :
Initial state :
Electrolyte :
Comments :
Electrode surface area : 0.001 cm�
Characteristic mass : 0.001 g
Equivalent Weight : 0.000 g/eq.
Density : 0.000 g/cm3
Record Analogic IN 1
Cycle Definition : Charge/Discharge alternance
Mode                Single sine
E (V)               0.0000
vs.                 Eoc
tE (h:m:s)          0:00:0.0000
record              0
dI                  1.000
unit dI             mA
dt (s)              0.000
fi                  1.000
unit fi             MHz
ff                  1.000
unit ff             Hz
Nd                  20
Points              per decade
spacing             Logarithmic
Va (mV)             128.0
pw                  0.50
Na                  3
corr                0
E range min (V)     -10.000
E range max (V)     10.000
I Range             Auto
Bandwidth           5
nc cycles           0
goto Ns'            0
nr cycles           0
inc. cycle          1

freq/Hz	Re(Z)/Ohm	-Im(Z)/Ohm	|Z|/Ohm	Phase(Z)/deg	time/s	<Ewe>/V	<I>/mA	Cs/�F	Cp/�F	cycle number	I Range	|Ewe|/V	|I|/A	(Q-Qo)/mA.h	Analog IN 1/V	Re(Y)/Ohm-1	Im(Y)/Ohm-1	|Y|/Ohm-1	Phase(Y)/deg	dq/mA.h
707950	124.907	62.6547	139.74	-26.6388	3.43148	3.30536	-0.00148847	0.00358809	0.000721319	1	11	0.0017053	1.22033e-05	-1.97817e-06	0.000422931	0.00639651	0.00320856	0.00715613	26.6388	-3.47568e-07
501206	143.034	60.8716	155.448	-23.0534	5.22049	3.30641	-0.000468145	0.00521661	0.000799924	1	11	0.00455797	2.93215e-05	-2.96826e-06	-0.000138486	0.00591928	0.0025191	0.00643302	23.0534	-3.35593e-07
354810	158.866	58.9983	169.468	-20.3735	7.00747	3.30693	-0.000123621	0.007603	0.000921487	1	11	0.0238764	0.000140891	-3.06598e-06	-0.000379094	0.00553169	0.0020543	0.00590082	20.3735	8.98122e-08
251188	172.837	55.9606	181.671	-17.9407	8.79249	3.3071	-0.000131827	0.0113224	0.00107432	1	11	0.0566968	0.000312085	-3.25414e-06	-5.82835e-05	0.00523681	0.00169555	0.00550446	17.9407	-1.6893e-07
177832	184.964	52.5423	192.282	-15.8581	10.5815	3.30723	7.79502e-05	0.0170334	0.00127186	1	11	0.101687	0.000528843	-4.13957e-06	-0.000298891	0.00500275	0.00142112	0.00520068	15.8581	1.65403e-07
125909	195.684	49.4096	201.825	-14.1708	12.0975	3.30735	0.000108377	0.025583	0.00153328	1	11	0.130389	0.000646049	-5.6904e-06	-5.82835e-05	0.00480401	0.001213	0.00495478	14.1708	-1.46783e-06
89129.3	205.224	46.9281	210.521	-12.8803	13.8855	3.30743	3.6893e-05	0.0380511	0.00189079	1	11	0.129656	0.000615882	-5.47134e-06	2.1919e-05	0.0046306	0.00105887	0.00475013	12.8803	7.54533e-10
63093.8	213.912	45.3332	218.663	-11.9654	15.6735	3.3075	3.91301e-05	0.0556438	0.00239166	1	11	0.12933	0.000591457	-6.28756e-06	0.000583336	0.00447389	0.000948127	0.00457325	11.9654	2.9708e-07
44666.7	222.039	44.8985	226.533	-11.4316	17.1875	3.3075	1.71087e-05	0.0793604	0.00311749	1	11	0.139344	0.000615116	-6.89355e-06	-5.82835e-05	0.0043268	0.000874922	0.00441437	11.4316	-5.65643e-07
31621.1	230.019	45.8189	234.538	-11.2657	18.8395	3.30755	0.000105011	0.109849	0.0041924	1	11	0.129507	0.000552182	-5.27989e-06	-0.000138486	0.00418155	0.000832951	0.00426371	11.2657	7.03649e-07
22389	238.161	48.2112	242.992	-11.4438	20.3545	3.30755	6.35785e-05	0.147447	0.0058043	1	11	0.129381	0.00053245	-5.62025e-06	-5.82835e-05	0.00403355	0.000816516	0.00411536	11.4438	-4.01443e-07
15847.7	246.992	52.1303	252.433	-11.918	21.7345	3.30756	-3.45898e-05	0.192648	0.00821582	1	11	0.13617	0.000539428	-6.20293e-06	-0.000539499	0.00387605	0.000818082	0.00396144	11.918	2.49032e-07
11217.7	256.958	57.6628	263.348	-12.648	23.1135	3.30755	-3.40304e-05	0.246048	0.0117964	1	11	0.139675	0.000530382	-6.26801e-06	-5.82835e-05	0.00370511	0.000831448	0.00379725	12.648	-4.19196e-07
7944	268.55	64.6536	276.223	-13.5364	24.723	3.30758	-1.63004e-05	0.309876	0.0169768	1	11	0.129639	0.000469328	-6.61727e-06	0.000342729	0.0035197	0.000847373	0.00362027	13.5364	-4.96625e-07
5621.06	282.418	72.9614	291.69	-14.4854	26.6353	3.30761	-9.20733e-05	0.388069	0.0242802	1	11	0.130234	0.00044648	-6.81629e-06	0.000422931	0.00331931	0.000857531	0.0034283	14.4854	-3.58883e-07
3981.27	299.083	82.1692	310.165	-15.3622	28.9157	3.30757	-0.00029121	0.486507	0.0341445	1	11	0.13042	0.000420485	-6.88206e-06	-0.000138486	0.00310889	0.000854128	0.00322409	15.3622	3.17871e-07
2817.3	319.275	91.4565	332.116	-15.9844	31.1959	3.3076	-0.000195656	0.617694	0.0468407	1	11	0.130434	0.000392737	-6.32191e-06	0.000102121	0.00289458	0.000829155	0.003011	15.9844	2.63099e-07
1995.64	343.122	99.6569	357.301	-16.1955	33.7267	3.3076	-3.62621e-05	0.800259	0.0622553	1	12	0.132624	0.000371181	-6.78225e-06	0.000262526	0.00268769	0.000780617	0.00279876	16.1955	-3.10501e-08
1411.84	370.442	105.073	385.055	-15.8355	36.0082	3.3076	-4.72373e-05	1.07287	0.0798876	1	12	0.131956	0.000342693	-7.44496e-06	0.000262526	0.00249847	0.00070867	0.00259703	15.8355	-1.56098e-07
1000.32	399.66	106.065	413.494	-14.863	38.2857	3.3076	-6.33631e-05	1.50006	0.0986992	1	12	0.131346	0.000317648	-7.72306e-06	-5.82835e-05	0.0023375	0.000620344	0.00241841	14.863	-1.63628e-07
707.509	428.641	101.792	440.562	-13.359	40.5654	3.3076	-6.31401e-05	2.2099	0.117975	1	12	0.130888	0.000297093	-8.0977e-06	0.000262526	0.00220841	0.000524446	0.00226983	13.359	-2.95575e-07
501.444	454.485	93.0235	463.907	-11.5675	42.8372	3.3076	-7.64665e-05	3.41197	0.137192	1	12	0.130593	0.000281506	-8.58018e-06	0.000182324	0.00211182	0.000432246	0.0021556	11.5675	-1.37677e-07
354.66	475.804	81.6903	482.766	-9.74207	45.1169	3.3076	-0.000125927	5.49336	0.157292	1	12	0.130408	0.000270126	-8.55802e-06	-0.000138486	0.00204153	0.000350507	0.0020714	9.74207	-1.46162e-07
251.044	492.001	70.2281	496.988	-8.12351	47.3849	3.3076	-4.90132e-05	9.02732	0.180256	1	12	0.130297	0.000262173	-8.37274e-06	-0.000138486	0.00199193	0.000284328	0.00201212	8.12351	3.01444e-07
177.781	504.187	60.245	507.774	-6.81392	49.6762	3.3076	1.47253e-06	14.8598	0.209177	1	12	0.130238	0.000256487	-8.23065e-06	-0.000218689	0.00195547	0.000233658	0.00196938	6.81392	-1.28615e-07
125.846	513.598	52.566	516.281	-5.8438	51.9514	3.3076	-4.76516e-05	24.059	0.249411	1	12	0.130198	0.000252184	-8.11028e-06	0.000102121	0.00192687	0.000197212	0.00193693	5.8438	1.18591e-07
89.116	521.355	47.3901	523.504	-5.1938	54.2237	3.30761	-1.19113e-05	37.6857	0.308825	1	12	0.130184	0.000248677	-8.36356e-06	0.000102121	0.00190236	0.000172921	0.00191021	5.1938	-1.9931e-07
63.0823	528.291	44.5405	530.165	-4.81924	56.5198	3.30761	-3.25348e-05	56.6445	0.399803	1	12	0.130167	0.000245522	-8.33845e-06	2.1919e-05	0.00187954	0.000158465	0.00188621	4.81924	-1.34038e-07
44.6712	535.008	43.8561	536.803	-4.68622	58.7842	3.3076	-3.82455e-05	81.2385	0.542242	1	12	0.130162	0.000242476	-8.32027e-06	0.000102121	0.00185665	0.000152195	0.00186288	4.68622	-1.32783e-07
31.6296	541.975	45.123	543.85	-4.75927	61.0214	3.3076	-1.49155e-05	111.514	0.767655	1	12	0.130155	0.000239322	-8.50398e-06	0.000422931	0.0018324	0.000152559	0.00183874	4.75927	2.18689e-08
22.3854	549.569	48.2143	551.68	-5.01378	63.2694	3.30759	3.15107e-06	147.462	1.12631	1	12	0.130152	0.000235919	-8.44851e-06	0.000182324	0.00180571	0.000158417	0.00181264	5.01378	-7.40671e-07
15.8576	558.003	53.0774	560.522	-5.43363	65.598	3.3076	1.13259e-05	189.092	1.69554	1	12	0.130151	0.000232195	-7.92013e-06	2.1919e-05	0.00177603	0.000168937	0.00178405	5.43363	5.34365e-07
11.2249	567.709	59.7511	570.844	-6.00824	67.9749	3.30759	-3.73308e-05	237.298	2.59986	1	12	0.130147	0.000227991	-8.98739e-06	-0.000379094	0.00174217	0.000183362	0.00175179	6.00824	-5.70821e-07
7.93953	578.964	68.4585	582.997	-6.74352	70.5187	3.3076	-3.81894e-05	292.818	4.03756	1	12	0.130145	0.000223234	-6.95281e-06	0.000102121	0.00170341	0.000201416	0.00171527	6.74352	2.32171e-06
5.6205	591.94	79.1577	597.21	-7.61674	72.3837	3.3076	0.000427064	357.727	6.2847	1	12	0.130145	0.000217923	-8.73679e-06	-0.000218689	0.00165968	0.000221942	0.00167445	7.61674	-1.4155e-06
3.97785	607.832	91.9151	614.742	-8.59901	74.9192	3.30759	-4.72508e-05	435.296	9.73135	1	12	0.130146	0.000211708	-6.03086e-06	-0.000218689	0.00160841	0.000243221	0.0016267	8.59901	3.14913e-06
2.81836	626.189	106.859	635.241	-9.68418	78.4187	3.30761	-4.43553e-05	528.462	14.9539	1	12	0.130149	0.000204881	-5.36057e-06	2.1919e-05	0.00155177	0.000264808	0.0015742	9.68418	5.66029e-06
1.99706	648.224	124.275	660.029	-10.8529	83.2816	3.30762	6.16715e-05	641.274	22.7347	1	12	0.130149	0.000197188	-4.00153e-06	-5.82835e-05	0.00148799	0.000285272	0.00151509	10.8529	6.2605e-06
1.41224	674.175	144.017	689.386	-12.0583	90.0881	3.30762	0.000209657	782.524	34.1509	1	12	0.130147	0.000188787	-1.01319e-05	-0.000298891	0.00141856	0.000303033	0.00145057	12.0583	-6.1492e-06
1.00006	704.649	166.988	724.166	-13.3321	99.6342	3.30761	0.00016301	953.029	50.6761	1	12	0.130149	0.000179723	-1.31699e-05	2.1919e-05	0.00134368	0.000318427	0.0013809	13.3321	-8.44023e-06

File: DE_206_2_30.mpt
EC-Lab ASCII FILE
Nb header lines : 60

Potentio Electrochemical Impedance Spectroscopy

Run on channel : 2 (SN 20919)
User :
CE vs. WE compliance from -10 V to 10 V
Electrode connection : standard
Ewe ctrl range : min = -10.00 V, max = 10.00 V
Acquisition started on : 12/03/2020 16:54:32
Technique started on : 12/03/2020 16:54:33
Saved on :
	File : DE_206_2_30.mpr
	Directory : P:\Chemistry\Data\VMP3\Kyler\DOE\DE_206\
	Host : 10.0.4.64
Device : VMP3 (SN 1432)
Address : USB
EC-Lab for windows v11.33 (software)
Internet server v11.32 (firmware)
Command interpretor v11.33 (firmware)
Electrode material :
Initial state :
Electrolyte :
Comments :
Electrode surface area : 0.001 cm²
Characteristic mass : 0.001 g
Equivalent Weight : 0.000 g/eq.
Density : 0.000 g/cm3
Record Analogic IN 1
Cycle Definition : Charge/Discharge alternance
Mode                Single sine
E (V)               0.0000
vs.                 Eoc
tE (h:m:s)          0:00:0.0000
record              0
dI                  1.000
unit dI             mA
dt (s)              0.000
fi                  1.000
unit fi             MHz
ff                  1.000
unit ff             Hz
Nd                  20
Points              per decade
spacing             Logarithmic
Va (mV)             128.0
pw                  0.50
Na                  3
corr                0
E range min (V)     -10.000
E range max (V)     10.000
I Range             Auto
Bandwidth           5
nc cycles           0
goto Ns'            0
nr cycles           0
inc. cycle          1

freq/Hz	Re(Z)/Ohm	-Im(Z)/Ohm	|Z|/Ohm	Phase(Z)/deg	time/s	<Ewe>/V	<I>/mA	Cs/µF	Cp/µF	cycle number	I Range	|Ewe|/V	|I|/A	(Q-Qo)/mA.h	Analog IN 1/V	Re(Y)/Ohm-1	Im(Y)/Ohm-1	|Y|/Ohm-1	Phase(Y)/deg	dq/mA.h
1.00002e+06	123.064	79.5043	146.512	-32.8641	1.9495	3.30793	-0.00260698	0.0020018	0.000589464	1	11	0.0018413	1.25676e-05	-7.21492e-07	2.39641e-05	0.00573305	0.00370378	0.00682539	32.8641	-7.21492e-07
707950	144.36	78.3115	164.233	-28.4786	3.73649	3.30905	-0.00143317	0.00287073	0.000652709	1	11	0.00842787	5.13164e-05	-1.59655e-06	0.000104145	0.00535211	0.00290337	0.00608889	28.4786	-1.13629e-07
501206	167.257	79.2228	185.07	-25.345	5.52349	3.30968	-0.000977842	0.00400824	0.00073448	1	11	0.0230409	0.000124498	-2.48386e-06	0.000344687	0.00488326	0.002313	0.00540335	25.345	-3.53296e-07
354810	188.81	77.9195	204.256	-22.4253	7.30948	3.30989	-0.000945874	0.00575676	0.00083776	1	11	0.0464082	0.000227206	-3.28773e-06	2.39641e-05	0.00452558	0.00186765	0.00489581	22.4253	-5.68661e-07
251188	208.067	74.3805	220.963	-19.6711	9.09449	3.30989	-0.000989542	0.00851849	0.000965257	1	11	0.0795028	0.000359802	-3.5644e-06	-0.00037694	0.00426154	0.00152342	0.00452565	19.6711	-3.21946e-07
177832	224.854	69.7733	235.431	-17.2394	10.7465	3.3099	-0.000971886	0.0128269	0.00112661	1	11	0.12304	0.000522618	-3.47548e-06	-0.000216578	0.00405671	0.00125882	0.00424753	17.2394	-4.11674e-07
125909	239.494	65.1361	248.194	-15.2149	12.3985	3.30994	-0.00104641	0.0194062	0.0013366	1	11	0.129951	0.000523586	-4.63575e-06	-0.000136398	0.00388789	0.0010574	0.00402911	15.2149	-4.78509e-07
89129.3	252.364	61.1043	259.656	-13.6109	14.1855	3.30998	-0.00105273	0.0292232	0.00161835	1	11	0.129488	0.00049869	-5.34818e-06	-0.000457121	0.00374309	0.000906303	0.00385124	13.6109	-5.54218e-07
63093.8	263.798	58.0882	270.117	-12.4183	15.8365	3.31002	-0.000999949	0.0434255	0.00200824	1	11	0.140316	0.000519461	-7.00481e-06	-0.000216578	0.00361548	0.000796128	0.00370209	12.4183	-6.22784e-07
44666.7	274.321	56.464	280.072	-11.6308	17.4865	3.31003	-0.00100627	0.0631052	0.00256488	1	11	0.130061	0.000464384	-7.73924e-06	-5.62167e-05	0.0034972	0.000719833	0.00357051	11.6308	4.81151e-07
31621.1	284.321	56.5078	289.882	-11.2408	19.0005	3.31005	-0.000929327	0.0890706	0.0033846	1	11	0.134727	0.000464766	-9.08443e-06	2.39641e-05	0.0033835	0.000672458	0.00344968	11.2408	-4.83578e-07
22389	294.35	58.2684	300.062	-11.1973	20.5155	3.31005	-0.000929327	0.121998	0.00460041	1	11	0.132529	0.000441672	-9.17013e-06	0.000344687	0.00326921	0.00064716	0.00333265	11.1973	-7.63959e-08
15847.7	305.006	61.8597	311.216	-11.4649	21.8955	3.31004	-0.00100199	0.162348	0.00641416	1	11	0.138728	0.000445763	-8.83678e-06	0.000104145	0.00314909	0.000638683	0.00321321	11.4649	2.66528e-07
11217.7	316.794	67.2898	323.862	-11.9919	23.4095	3.31006	-0.00103507	0.210847	0.00910219	1	11	0.130101	0.000401719	-8.86313e-06	-0.000136398	0.00302036	0.000641549	0.00308774	11.9919	-2.43321e-07
7944	330.303	74.4086	338.58	-12.6953	24.878	3.31007	-0.0010295	0.269251	0.0130041	1	11	0.131481	0.00038833	-9.46138e-06	-0.000136398	0.0028813	0.000649082	0.00295351	12.6953	-2.04451e-07
5621.06	346.163	82.9684	355.967	-13.4784	26.7903	3.31008	-0.00115848	0.341263	0.0185394	1	11	0.132063	0.000370999	-9.92602e-06	-0.00037694	0.00273188	0.000654777	0.00280925	13.4784	-1.31882e-07
3981.27	365.029	92.4834	376.563	-14.2172	29.0707	3.31008	-0.00115067	0.432249	0.0260728	1	11	0.132264	0.000351239	-1.1156e-05	0.000344687	0.00257426	0.000652213	0.0026556	14.2172	-4.61401e-07
2817.3	387.622	102.221	400.874	-14.7733	31.602	3.31008	-0.000166842	0.552647	0.0359345	1	12	0.134355	0.000335156	-1.2237e-05	-0.000216578	0.00241208	0.000636097	0.00249455	14.7733	-3.29641e-07
1995.64	413.94	110.63	428.469	-14.9633	33.8817	3.31009	-0.000159904	0.720881	0.048059	1	12	0.134052	0.000312863	-1.24094e-05	0.000184326	0.00225475	0.00060261	0.00233389	14.9633	-2.40458e-07
1411.84	443.905	116.207	458.863	-14.6699	36.1612	3.31008	-0.000162124	0.970073	0.0622158	1	12	0.133537	0.000291016	-1.24835e-05	0.00058523	0.00210826	0.000551906	0.0021793	14.6699	-2.54748e-07
1000.32	475.787	117.221	490.014	-13.8404	38.4377	3.31009	-0.000182509	1.3573	0.0776726	1	12	0.133064	0.000271551	-1.22907e-05	0.000264507	0.0019815	0.000488188	0.00204076	13.8404	2.10464e-07
707.509	507.587	112.779	519.965	-12.5269	40.7184	3.31009	-0.000142414	1.99461	0.093836	1	12	0.132699	0.000255208	-1.21479e-05	2.39641e-05	0.00187742	0.00041714	0.00192321	12.5269	1.4202e-07
501.444	536.123	103.633	546.047	-10.9404	42.9902	3.31009	-0.000142135	3.06268	0.110315	1	12	0.132459	0.000242578	-1.19744e-05	-5.62167e-05	0.00179806	0.000347565	0.00183134	10.9404	1.57468e-07
354.66	559.939	91.5559	567.374	-9.28629	45.2699	3.31008	-0.000230588	4.90142	0.127631	1	12	0.132305	0.000233188	-1.23969e-05	-0.000216578	0.00173941	0.000284411	0.0017625	9.28629	-5.21104e-08
251.044	578.31	79.2467	583.714	-7.80273	47.5379	3.3101	-0.000137529	7.99997	0.147452	1	12	0.132215	0.000226506	-1.25701e-05	-5.62167e-05	0.00169731	0.000232584	0.00171317	7.80273	-2.34877e-07
177.781	592.264	68.5141	596.214	-6.59874	49.8283	3.31009	-9.70785e-05	13.0663	0.172548	1	12	0.132161	0.000221667	-1.27899e-05	2.39641e-05	0.00166614	0.000192742	0.00167725	6.59874	1.94773e-07
125.846	603.191	60.1794	606.186	-5.69745	52.1034	3.31009	-0.000140103	21.0152	0.207118	1	12	0.132135	0.000217978	-1.29407e-05	0.000344687	0.00164151	0.000163771	0.00164966	5.69745	-2.60845e-08
89.116	612.214	54.6332	614.647	-5.09949	54.3757	3.3101	-0.000122572	32.6895	0.258267	1	12	0.132116	0.000214946	-1.27511e-05	-0.000216578	0.00162051	0.000144612	0.00162695	5.09949	3.52982e-08
63.0823	620.36	51.8082	622.519	-4.77388	56.6719	3.31009	-0.000119626	48.6983	0.337292	1	12	0.132106	0.000212212	-1.28117e-05	0.000344687	0.0016008	0.000133688	0.00160638	4.77388	8.23942e-08
44.6712	628.294	51.3309	630.387	-4.67062	58.9372	3.3101	-0.000103625	69.4087	0.46021	1	12	0.132099	0.000209553	-1.2999e-05	0.000344687	0.00158106	0.000129171	0.00158633	4.67062	8.14e-08
31.6296	636.477	53.0674	638.686	-4.76611	61.1745	3.3101	-8.05928e-05	94.8198	0.654607	1	12	0.132096	0.000206824	-1.29861e-05	0.000104145	0.0015603	0.000130093	0.00156571	4.76611	-1.04036e-07
22.3854	645.438	57.0961	647.958	-5.05529	63.4224	3.31009	-0.000144206	124.523	0.96687	1	12	0.132096	0.000203865	-1.30391e-05	-0.00037694	0.00153731	0.000135992	0.00154331	5.05529	6.21023e-07
15.8576	655.348	63.201	658.388	-5.5085	65.7509	3.31008	-0.000101834	158.803	1.46333	1	12	0.132089	0.000200625	-1.36968e-05	2.39641e-05	0.00151185	0.000145801	0.00151886	5.5085	-7.06784e-07
11.2249	666.846	71.6247	670.682	-6.13053	68.1279	3.31009	-3.41004e-05	197.96	2.25771	1	12	0.132091	0.00019695	-1.29075e-05	0.000184326	0.00148249	0.000159232	0.00149102	6.13053	1.45986e-07
7.93953	680.365	82.3189	685.327	-6.89881	70.6717	3.31009	-4.69593e-05	243.515	3.51341	1	12	0.132092	0.000192744	-1.4519e-05	-0.000216578	0.00144859	0.000175269	0.00145916	6.89881	-2.0089e-06
5.6205	695.993	95.606	702.529	-7.82155	72.5366	3.31008	-0.000233368	296.183	5.48531	1	12	0.132094	0.000188026	-1.26211e-05	0.000184326	0.00141019	0.000193712	0.00142343	7.82155	1.30997e-06
3.97785	714.947	111.394	723.573	-8.85588	75.0722	3.31008	-6.04429e-05	359.179	8.51271	1	12	0.13209	0.000182552	-1.54305e-05	-5.62167e-05	0.00136556	0.000212763	0.00138203	8.85588	-2.28141e-06
2.81836	737.052	130.099	748.446	-10.0103	78.5716	3.3101	4.58102e-05	434.059	13.1153	1	12	0.13209	0.000176486	-1.61341e-05	-0.000136398	0.00131576	0.000232249	0.0013361	10.0103	-4.71607e-06
1.99706	763.753	151.706	778.674	-11.2345	83.4337	3.3101	-3.92852e-05	525.324	19.9397	1	12	0.132092	0.000169637	-1.64733e-05	-5.62167e-05	0.00125963	0.000250202	0.00128423	11.2345	-3.95454e-06
1.41224	795.085	176.561	814.453	-12.5203	90.2401	3.31011	-0.000160918	638.289	29.9968	1	12	0.13209	0.000162183	-1.03967e-05	-0.000136398	0.00119862	0.000266172	0.00122782	12.5203	7.25039e-06
1.00006	832.466	205.288	857.405	-13.8529	99.7863	3.31011	-1.6097e-05	775.225	44.4411	1	12	0.132091	0.00015406	-1.02284e-05	-0.000136398	0.00113239	0.00027925	0.00116631	13.8529	4.28904e-06