Folder: EIS_Manager/utils/uploads (part 2)

File: DE_65_4_60.mpt
EC-Lab ASCII FILE
Nb header lines : 60

Potentio Electrochemical Impedance Spectroscopy

Run on channel : 4 (SN 4192)
User :
CE vs. WE compliance from -10 V to 10 V
Electrode connection : standard
Ewe ctrl range : min = -10.00 V, max = 10.00 V
Acquisition started on : 02/20/2020 14:52:47
Technique started on : 02/20/2020 14:52:48
Saved on :
	File : DE_65_4_60.mpr
	Directory : P:\Chemistry\Data\VMP3\Kyler\DOE\DE_65\60C\
	Host : 10.0.4.64
Device : VMP3 (SN 1432)
Address : USB
EC-Lab for windows v11.33 (software)
Internet server v11.32 (firmware)
Command interpretor v11.33 (firmware)
Electrode material :
Initial state :
Electrolyte :
Comments :
Electrode surface area : 0.001 cm²
Characteristic mass : 0.001 g
Equivalent Weight : 0.000 g/eq.
Density : 0.000 g/cm3
Record Analogic IN 1
Cycle Definition : Charge/Discharge alternance
Mode                Single sine
E (V)               0.0000
vs.                 Eoc
tE (h:m:s)          0:00:0.0000
record              0
dI                  1.000
unit dI             mA
dt (s)              0.000
fi                  1.000
unit fi             MHz
ff                  1.000
unit ff             Hz
Nd                  20
Points              per decade
spacing             Logarithmic
Va (mV)             128.0
pw                  0.50
Na                  3
corr                0
E range min (V)     -10.000
E range max (V)     10.000
I Range             Auto
Bandwidth           5
nc cycles           0
goto Ns'            0
nr cycles           0
inc. cycle          1

freq/Hz	Re(Z)/Ohm	-Im(Z)/Ohm	|Z|/Ohm	Phase(Z)/deg	time/s	<Ewe>/V	<I>/mA	Cs/µF	Cp/µF	cycle number	I Range	|Ewe|/V	|I|/A	(Q-Qo)/mA.h	Analog IN 1/V	Re(Y)/Ohm-1	Im(Y)/Ohm-1	|Y|/Ohm-1	Phase(Y)/deg	dq/mA.h
1.00002e+06	0.0783198	-2.63295	2.63411	88.2962	1.79548	-0.00250375	-0.283135	-0.0604464	-0.0603929	1	9	0.000497579	0.000188898	-9.52484e-05	-0.000163795	0.0112876	-0.379467	0.379635	-88.2962	-9.52484e-05
891247	0.301999	-3.26312	3.27706	84.7124	2.39149	-0.00224669	-0.247065	-0.0547254	-0.0542607	1	9	0.000708646	0.000216244	-0.000133725	-0.000564764	0.0281213	-0.303853	0.305151	-84.7124	-3.84767e-05
794333	0.8116	-3.85644	3.94092	78.1154	2.98749	-0.00205797	-0.213267	-0.0519554	-0.0497519	1	9	0.00102749	0.000260723	-0.000167637	0.00015698	0.0522572	-0.248308	0.253748	-78.1154	-3.3912e-05
707950	1.60437	-4.10535	4.40771	68.6544	3.58349	-0.00191337	-0.188059	-0.0547605	-0.0475053	1	9	0.00143582	0.000325751	-0.000198391	-0.000725151	0.0825807	-0.211312	0.226875	-68.6544	-3.07538e-05
630957	2.39056	-4.22379	4.85337	60.4912	4.17947	-0.0017826	-0.16585	-0.0597198	-0.045231	1	9	0.00195693	0.00040321	-0.000225477	-0.00120631	0.101488	-0.179315	0.206042	-60.4912	-2.70862e-05
562342	2.90591	-3.94631	4.90078	53.6335	4.77549	-0.00167344	-0.163987	-0.0717181	-0.0465029	1	9	0.00252623	0.000515474	-0.000250843	-0.000404376	0.120991	-0.164309	0.204049	-53.6335	-2.53662e-05
501206	3.44206	-3.7289	5.07469	47.2906	5.3725	-0.00155734	-0.14448	-0.0851576	-0.0459797	1	9	0.00326362	0.000643119	-0.000273691	-0.00104593	0.13366	-0.144798	0.197057	-47.2906	-2.28474e-05
446686	3.95527	-3.43059	5.23575	40.9366	5.96747	-0.00149608	-0.137978	-0.10386	-0.044589	1	9	0.00423097	0.000808092	-0.000296302	-0.000725151	0.144284	-0.125144	0.190994	-40.9366	-2.26108e-05
398103	6.17219	-3.23368	6.96797	27.6505	6.86548	-0.0013009	-0.194854	-0.123631	-0.0266261	1	10	0.00511079	0.000733469	-0.000338917	-0.000805345	0.127124	-0.0666015	0.143514	-27.6505	-4.26158e-05
354810	6.1782	-2.90506	6.82712	25.1834	7.46149	-0.00126105	-0.189208	-0.154408	-0.0279579	1	10	0.00651102	0.0009537	-0.000368785	-0.000324182	0.132552	-0.0623275	0.146475	-25.1834	-2.98681e-05
316230	6.11809	-2.59324	6.64499	22.9703	8.05649	-0.00128312	-0.184426	-0.194077	-0.0295577	1	10	0.00815983	0.00122797	-0.000396753	7.67863e-05	0.138557	-0.0587292	0.150489	-22.9703	-2.7968e-05
281835	6.12799	-2.33879	6.55913	20.8897	8.65149	-0.00129425	-0.178201	-0.241455	-0.030699	1	10	0.01033	0.0015749	-0.000428154	-0.000725151	0.142438	-0.0543623	0.152459	-20.8897	-3.14003e-05
251188	6.11314	-2.10557	6.4656	19.0054	9.24749	-0.00128929	-0.181264	-0.30092	-0.0319135	1	10	0.013103	0.00202657	-0.00045342	-0.000725151	0.146234	-0.0503678	0.154665	-19.0054	-2.52667e-05
223872	6.11021	-1.89941	6.39863	17.2682	9.84248	-0.00125926	-0.175717	-0.374286	-0.0329811	1	10	0.0168176	0.00262831	-0.000484253	-0.000324182	0.149239	-0.0463921	0.156284	-17.2682	-3.08328e-05
199544	6.08808	-1.70219	6.32157	15.6206	10.4395	-0.00133379	-0.17907	-0.468571	-0.0339735	1	10	0.0216834	0.00343007	-0.000512174	-8.36012e-05	0.152346	-0.0425949	0.158189	-15.6206	-2.79211e-05
177832	6.05196	-1.5239	6.24087	14.1334	11.0345	-0.00130637	-0.179446	-0.587292	-0.0350168	1	10	0.0281846	0.00451613	-0.000544154	-0.000243989	0.155384	-0.0391261	0.160234	-14.1334	-3.19797e-05
158486	6.04761	-1.36767	6.20033	12.7432	11.6295	-0.0012765	-0.177031	-0.734254	-0.0357258	1	10	0.0368795	0.00594798	-0.00057295	-0.000725151	0.157309	-0.0355757	0.161282	-12.7432	-2.87963e-05
141256	6.05246	-1.22825	6.17583	11.4715	12.2245	-0.00129428	-0.180884	-0.917329	-0.0362837	1	10	0.0480405	0.0077788	-0.000606085	-0.000965732	0.158687	-0.0322031	0.161922	-11.4715	-3.31347e-05
125909	6.03747	-1.09918	6.13671	10.3183	12.8215	-0.00128933	-0.174792	-1.14999	-0.0368944	1	10	0.0613587	0.00999863	-0.000630378	7.67863e-05	0.160318	-0.0291876	0.162954	-10.3183	-2.42933e-05
112205	6.02894	-0.982861	6.10853	9.25913	13.4165	-0.00130679	-0.173158	-1.44317	-0.0373617	1	10	0.0767205	0.0125596	-0.000662781	-0.000243989	0.161573	-0.0263402	0.163706	-9.25913	-3.24031e-05
100004	6.01883	-0.878606	6.08262	8.30517	14.0125	-0.00129538	-0.171738	-1.81138	-0.0377935	1	10	0.0936995	0.0154045	-0.000717618	-0.00048457	0.162679	-0.0237473	0.164403	-8.30517	-5.48371e-05
89129.3	6.01761	-0.786252	6.06876	7.44401	14.6075	-0.00129244	-0.163047	-2.27111	-0.0381208	1	10	0.111378	0.0183526	-0.00074764	-0.000243989	0.16339	-0.0213482	0.164778	-7.44401	-3.00216e-05
79433.3	6.01696	-0.703757	6.05797	6.67114	15.0675	-0.00126891	-0.15881	-2.84705	-0.0384225	1	10	0.128367	0.0211897	-0.00077616	-0.000885539	0.163954	-0.0191764	0.165072	-6.67114	-2.85204e-05
70795	6.01105	-0.629164	6.04389	5.97527	15.6635	-0.00126593	-0.157197	-3.57317	-0.0387212	1	10	0.129877	0.021489	-0.000794626	-0.000965732	0.164558	-0.0172239	0.165456	-5.97527	-1.84657e-05
63093.8	6.00581	-0.562751	6.03212	5.35304	16.2595	-0.00126278	-0.155686	-4.48247	-0.039013	1	10	0.130325	0.0216052	-0.000850905	-0.000243989	0.165056	-0.0154659	0.165779	-5.35304	-5.62791e-05
56237	6.00147	-0.502829	6.0225	4.78931	16.8545	-0.00124193	-0.153573	-5.6283	-0.0392343	1	10	0.130368	0.0216468	-0.000843193	-0.00112612	0.165464	-0.0138633	0.166044	-4.78931	7.71187e-06
50122.5	5.99664	-0.449009	6.01343	4.28213	17.4495	-0.00123701	-0.152083	-7.07185	-0.0394274	1	10	0.130351	0.0216766	-0.000835801	-0.000564764	0.16583	-0.0124168	0.166294	-4.28213	7.39215e-06
44666.7	5.99454	-0.401615	6.00798	3.83291	18.0455	-0.00122998	-0.15043	-8.87209	-0.0396451	1	10	0.130194	0.0216703	-0.000832039	-0.000885539	0.166073	-0.0111264	0.166445	-3.83291	3.76222e-06
39814.1	5.99062	-0.358243	6.00132	3.42225	18.6405	-0.00122605	-0.148558	-11.1585	-0.0397619	1	10	0.13012	0.021682	-0.000864594	-0.000324182	0.166333	-0.00994681	0.16663	-3.42225	-3.25548e-05
35481	5.98933	-0.32	5.99787	3.05831	19.2355	-0.00120247	-0.14671	-14.0176	-0.0399007	1	10	0.129951	0.0216661	-0.000915048	-0.000163795	0.166488	-0.0088952	0.166726	-3.05831	-5.0454e-05
31621.1	5.99098	-0.285155	5.99777	2.72507	19.6955	-0.00123131	-0.148367	-17.6507	-0.0398974	1	10	0.140444	0.0234161	-0.00091978	-0.000885539	0.16654	-0.00792687	0.166729	-2.72507	-4.73209e-06
28188.1	5.9862	-0.253792	5.99158	2.42767	20.2915	-0.00120812	-0.148	-22.2472	-0.0399163	1	10	0.131211	0.0218992	-0.000922281	-0.000644957	0.166751	-0.00706961	0.166901	-2.42767	-2.50142e-06
25116.9	5.98796	-0.225949	5.99222	2.16097	20.7515	-0.00122821	-0.147004	-28.0442	-0.039874	1	10	0.14009	0.0233786	-0.000958644	-0.000163795	0.166764	-0.00629268	0.166883	-2.16097	-3.63629e-05
22389	5.98369	-0.200711	5.98705	1.92116	21.3475	-0.00119965	-0.146431	-35.4171	-0.0398044	1	10	0.130752	0.0218391	-0.000968159	-0.000644957	0.166933	-0.00559946	0.167027	-1.92116	-9.51489e-06
19948.8	5.98512	-0.178249	5.98778	1.70588	21.8075	-0.0012037	-0.144593	-44.7585	-0.0396644	1	10	0.137818	0.0230166	-0.000964547	-0.000965732	0.166933	-0.00497161	0.167007	-1.70588	3.6125e-06
17786.9	5.98183	-0.158207	5.98392	1.515	22.4045	-0.00118735	-0.145024	-56.558	-0.0395344	1	10	0.13007	0.0217366	-0.000988763	-0.000965732	0.167056	-0.00441829	0.167115	-1.515	-2.42165e-05
15847.7	5.9839	-0.140333	5.98555	1.34344	22.8645	-0.00118778	-0.143482	-71.5638	-0.0393376	1	10	0.135422	0.0226249	-0.00100567	-0.000564764	0.167023	-0.003917	0.167069	-1.34344	-1.6905e-05
14121.9	5.98522	-0.124294	5.98651	1.18968	23.3235	-0.00119993	-0.143638	-90.6731	-0.0390867	1	10	0.140216	0.023422	-0.00100971	-8.36012e-05	0.167006	-0.00346818	0.167042	-1.18968	-4.04249e-06