Folder: EIS_Manager/utils/uploads

Note: README.md
---
description: >-
  The EIS Manager is an application that serves as a fitter for mpt files. It
  requires updated python 3.x and pip.
---

# Overview

## Finding the Application File

The application is an exe file in the Release folder. If you click into the bin folder, there will be two folders, one Debug and one Release; inside the Release folder will be the application file. You can click on it to get it to start running. 

The output will be a csv file that gives the coefficients of the fitted equation.

Upon finding the application, opening the application should look like this

![This is the application open without any mpt files loaded.](.gitbook/assets/image%20%288%29.png)

File: DE_65_1_60.mpt
EC-Lab ASCII FILE
Nb header lines : 60

Potentio Electrochemical Impedance Spectroscopy

Run on channel : 1 (SN 20909)
User :
CE vs. WE compliance from -10 V to 10 V
Electrode connection : standard
Ewe ctrl range : min = -10.00 V, max = 10.00 V
Acquisition started on : 02/20/2020 14:53:05
Technique started on : 02/20/2020 14:53:06
Saved on :
	File : DE_65_1_60.mpr
	Directory : P:\Chemistry\Data\VMP3\Kyler\DOE\DE_65\60C\
	Host : 10.0.4.64
Device : VMP3 (SN 1432)
Address : USB
EC-Lab for windows v11.33 (software)
Internet server v11.32 (firmware)
Command interpretor v11.33 (firmware)
Electrode material :
Initial state :
Electrolyte :
Comments :
Electrode surface area : 0.001 cm²
Characteristic mass : 0.001 g
Equivalent Weight : 0.000 g/eq.
Density : 0.000 g/cm3
Record Analogic IN 1
Cycle Definition : Charge/Discharge alternance
Mode                Single sine
E (V)               0.0000
vs.                 Eoc
tE (h:m:s)          0:00:0.0000
record              0
dI                  1.000
unit dI             mA
dt (s)              0.000
fi                  1.000
unit fi             MHz
ff                  1.000
unit ff             Hz
Nd                  20
Points              per decade
spacing             Logarithmic
Va (mV)             128.0
pw                  0.50
Na                  3
corr                0
E range min (V)     -10.000
E range max (V)     10.000
I Range             Auto
Bandwidth           5
nc cycles           0
goto Ns'            0
nr cycles           0
inc. cycle          1

freq/Hz	Re(Z)/Ohm	-Im(Z)/Ohm	|Z|/Ohm	Phase(Z)/deg	time/s	<Ewe>/V	<I>/mA	Cs/µF	Cp/µF	cycle number	I Range	|Ewe|/V	|I|/A	(Q-Qo)/mA.h	Analog IN 1/V	Re(Y)/Ohm-1	Im(Y)/Ohm-1	|Y|/Ohm-1	Phase(Y)/deg	dq/mA.h
1.00002e+06	76.2275	71.3283	104.395	-43.0983	1.64549	-0.351733	0.000394837	0.00223126	0.00104163	1	11	0.00058269	5.58158e-06	2.5402e-07	-5.82835e-05	0.0069944	0.00654486	0.00957898	43.0983	2.5402e-07
794333	92.2304	62.1111	111.195	-33.9577	2.83847	-0.350761	0.000398198	0.00322588	0.00100651	1	11	0.00148896	1.33906e-05	4.26047e-07	-0.000298891	0.00745945	0.00502345	0.00899325	33.9577	8.13417e-08
630957	105.026	54.2589	118.214	-27.3219	4.0295	-0.34994	0.000460534	0.00464889	0.000979384	1	11	0.000723628	6.12133e-06	3.51039e-07	-0.000218689	0.00751553	0.00388269	0.00845922	27.3219	-7.61566e-08
501206	114.828	46.9919	124.072	-22.2561	5.22249	-0.349324	0.000357329	0.00675742	0.00096935	1	11	0.00403005	3.24816e-05	6.94661e-07	0.000102121	0.0074594	0.00305265	0.00805985	22.2561	4.74208e-07
398103	122.053	40.5718	128.62	-18.3874	6.41349	-0.348918	0.00032691	0.00985372	0.000980469	1	11	0.0138196	0.000107445	1.15765e-06	-0.000138486	0.00737793	0.0024525	0.00777487	18.3874	3.95051e-08
316230	127.55	34.3807	132.103	-15.0853	7.6045	-0.348701	0.000458302	0.0146387	0.000991533	1	11	0.0287657	0.000217752	1.05902e-06	-0.000218689	0.007309	0.00197011	0.00756986	15.0853	-2.49184e-07
251188	131.371	28.8428	134.5	-12.3829	8.79648	-0.348664	0.000131885	0.0219677	0.00101022	1	11	0.0487077	0.00036214	6.56527e-07	-5.82835e-05	0.00726199	0.00159438	0.00743495	12.3829	-6.69445e-07
199544	133.93	24.1384	136.088	-10.2168	9.98948	-0.348601	0.000155592	0.0330426	0.00103957	1	11	0.0732744	0.000538435	8.99822e-07	-0.000379094	0.00723168	0.00130338	0.0073482	10.2168	6.20925e-07
158486	135.736	20.2855	137.243	-8.49987	11.1805	-0.348568	2.60766e-05	0.0495043	0.00108152	1	11	0.102056	0.000743612	1.11994e-06	0.000182324	0.00720631	0.00107697	0.00728634	8.49987	-2.86708e-07
125909	137.125	17.1931	138.199	-7.14657	12.1005	-0.348475	0.000508149	0.0735206	0.0011379	1	11	0.134755	0.00097508	7.93068e-07	0.000262526	0.00717973	0.000900208	0.00723594	7.14657	2.88612e-07
100004	138.22	14.6939	138.999	-6.0682	13.2915	-0.348412	0.000238092	0.10831	0.00121037	1	11	0.130012	0.000935345	7.72926e-07	2.1919e-05	0.00715398	0.000760525	0.0071943	6.0682	-4.98989e-07
79433.3	139.09	12.6949	139.668	-5.21501	14.4815	-0.348314	0.000518973	0.157829	0.00130393	1	11	0.129655	0.000928311	1.41283e-06	-5.82835e-05	0.00713019	0.000650782	0.00715983	5.21501	6.72813e-08
63093.8	139.749	11.1641	140.194	-4.5675	15.6735	-0.348311	0.000368175	0.225948	0.00143285	1	11	0.12958	0.000924292	-5.89189e-07	0.000182324	0.00711033	0.000568025	0.00713298	4.5675	-2.28371e-07
50122.5	140.272	10.0571	140.632	-4.10091	16.7305	-0.348289	0.000554805	0.31573	0.00161469	1	11	0.14027	0.000997428	1.28485e-06	0.000342729	0.00709254	0.000508514	0.00711075	4.10091	1.73667e-07
39814.1	140.707	9.34997	141.018	-3.80171	17.7855	-0.348276	0.000429386	0.427537	0.00187952	1	11	0.139519	0.000989375	3.89323e-06	0.000503134	0.00707571	0.00047018	0.00709132	3.80171	8.08448e-07
31621.1	141.092	9.0217	141.38	-3.65863	18.8415	-0.348247	0.00050031	0.557897	0.00227172	1	11	0.137311	0.00097122	9.42834e-07	-0.000298891	0.00705873	0.00045135	0.00707314	3.65863	-8.58279e-07
25116.9	141.437	9.06504	141.727	-3.66721	19.8975	-0.348247	0.000452533	0.699011	0.00285968	1	11	0.135003	0.000952555	2.06384e-06	-5.82835e-05	0.00704136	0.000451298	0.00705581	3.66721	-2.10071e-07
19948.8	141.786	9.4717	142.102	-3.82185	20.9535	-0.34824	0.000389264	0.842318	0.00374225	1	11	0.129698	0.000912713	2.50813e-06	0.000182324	0.00702156	0.000469061	0.00703721	3.82185	2.40215e-07
15847.7	142.139	10.2754	142.509	-4.1348	21.8735	-0.348231	0.00040942	0.977362	0.00508119	1	11	0.135731	0.000952438	1.21374e-06	-5.82835e-05	0.00699881	0.000505954	0.00701708	4.1348	-5.94178e-07
12590.9	142.52	11.4835	142.982	-4.60663	22.7925	-0.348243	0.000350631	1.10075	0.00710026	1	11	0.139986	0.000979051	4.31593e-07	-0.000379094	0.00697131	0.00056171	0.0069939	4.60663	-3.05656e-07
10002.2	142.935	13.1758	143.541	-5.26665	23.8485	-0.348239	0.000383665	1.20767	0.0101753	1	11	0.130484	0.00090904	1.17883e-06	-5.82835e-05	0.00693725	0.000639476	0.00696666	5.26665	7.4263e-07
7944	143.4	15.4145	144.226	-6.13536	24.857	-0.348205	0.000577202	1.29972	0.0148465	1	11	0.132197	0.000916595	1.8554e-06	-0.000138486	0.00689386	0.000741044	0.00693357	6.13536	8.64054e-07
6307.73	143.925	18.2927	145.083	-7.24339	26.0685	-0.348191	0.000435549	1.37933	0.0219277	1	11	0.133297	0.000918769	1.68006e-06	2.1919e-05	0.00683762	0.000869053	0.00689263	7.24339	-6.59668e-07
5011.6	144.527	21.9439	146.184	-8.6334	27.5297	-0.348177	0.000459997	1.4472	0.0326107	1	11	0.133977	0.000916499	2.77471e-06	-0.000138486	0.0067632	0.00102687	0.00684071	8.6334	4.48513e-07
3981.27	145.223	26.5337	147.627	-10.3543	29.0497	-0.348181	0.000498818	1.50661	0.0486701	1	11	0.134407	0.000910449	3.122e-06	0.000262526	0.00666351	0.00121749	0.00677382	10.3543	-4.88113e-07
3161.01	146.032	32.2865	149.558	-12.4671	30.5697	-0.348178	0.000457758	1.55946	0.0726764	1	11	0.134656	0.000900355	2.85676e-06	-0.000218689	0.00652869	0.00144344	0.00668635	12.4671	-1.08296e-07
2510.8	146.996	39.4148	152.188	-15.01	32.0897	-0.348184	0.000416325	1.60823	0.107871	1	11	0.134786	0.000885653	2.43439e-06	-0.000138486	0.00634662	0.00170175	0.00657081	15.01	2.10175e-07
1995.64	148.122	48.2332	155.778	-18.0368	33.6097	-0.348176	0.000493031	1.65345	0.158516	1	11	0.134841	0.000865598	2.77528e-06	0.000422931	0.00610394	0.00198763	0.0064194	18.0368	-4.65754e-07
1585.51	149.418	59.1855	160.713	-21.6089	35.1297	-0.348188	0.000475673	1.69604	0.23002	1	11	0.134836	0.000838984	3.84729e-06	-5.82835e-05	0.00578497	0.00229147	0.00622228	21.6089	2.74037e-07
[...]
1000.32	152.61	89.6585	176.998	-30.4343	38.1687	-0.348183	0.000478097	1.77456	0.455339	1	11	0.134733	0.000761211	5.81973e-06	2.1919e-05	0.0048713	0.0028619	0.00564978	30.4343	7.80867e-07
794.238	154.496	110.687	190.054	-35.6193	39.6869	-0.34818	0.000496012	1.81039	0.614061	1	11	0.134645	0.000708456	6.18221e-06	-0.000298891	0.00427722	0.00306437	0.00526166	35.6193	-3.56248e-07
631.01	156.595	136.843	207.961	-41.1492	41.2074	-0.34818	0.000441885	1.84315	0.798071	1	11	0.134555	0.00064702	7.42378e-06	-5.82835e-05	0.00362086	0.00316415	0.00480858	41.1492	5.28017e-07
501.444	158.977	169.497	232.385	-46.8344	42.7212	-0.348184	0.000448041	1.87256	0.996192	1	11	0.134457	0.000578596	7.93344e-06	0.000182324	0.00294386	0.00313867	0.0043032	46.8344	5.27327e-07
398.089	161.709	210.536	265.472	-52.4728	44.2407	-0.348176	0.000420978	1.89895	1.19434	1	11	0.134368	0.000506149	7.46477e-06	-5.82835e-05	0.00229455	0.00298737	0.00376688	52.4728	-1.28631e-07
316.316	165.037	261.747	309.432	-57.7677	46.0089	-0.348192	0.000858804	1.92229	1.37546	1	12	0.136152	0.000440005	7.94589e-06	-0.000619701	0.00172365	0.00273369	0.00323172	57.7677	2.69528e-07
251.044	169.052	326.152	367.361	-62.6013	47.5209	-0.348188	0.000862199	1.94379	1.53216	1	12	0.135533	0.000368938	8.81704e-06	-5.82835e-05	0.00125266	0.00241677	0.00272212	62.6013	6.04294e-07
199.553	174.119	406.199	441.944	-66.7974	49.0452	-0.348197	0.00085001	1.96346	1.65869	1	12	0.135082	0.000305655	9.55254e-06	0.000182324	0.000891478	0.00207971	0.00226273	66.7974	2.1733e-07
158.428	180.563	506.77	537.977	-70.389	50.5797	-0.348194	0.000849596	1.98233	1.75902	1	12	0.134754	0.000250484	9.85393e-06	-0.000379094	0.00062388	0.00175099	0.00185882	70.389	2.90167e-07
125.846	188.857	632.15	659.758	-73.3663	52.0884	-0.348197	0.000846871	2.00061	1.83667	1	12	0.134529	0.000203906	1.01838e-05	-5.82835e-05	0.000433874	0.00145228	0.00151571	73.3663	3.51163e-07
100.032	199.593	788.064	812.947	-75.7876	53.5937	-0.348191	0.00082453	2.01892	1.89722	1	12	0.134382	0.000165303	1.07777e-05	-0.000218689	0.000302009	0.00119244	0.00123009	75.7876	2.00471e-07
79.4155	213.824	983.488	1006.46	-77.734	55.1252	-0.348188	0.000842036	2.03773	1.94575	1	12	0.134275	0.000133413	1.11536e-05	0.000182324	0.000211087	0.000970896	0.000993578	77.734	3.01175e-07
63.0823	232.315	1226.68	1248.49	-79.2761	56.6569	-0.348187	0.000814953	2.05674	1.98553	1	12	0.134216	0.000107503	1.14462e-05	-0.000138486	0.000149042	0.00078698	0.000800969	79.2761	1.84525e-07
50.1444	256.229	1528.44	1549.77	-80.4834	58.1582	-0.348184	0.000815681	2.07658	2.01981	1	12	0.134172	8.65753e-05	1.16625e-05	0.000342729	0.000106683	0.000636376	0.000645256	80.4834	1.13244e-07
39.8089	288.424	1906.18	1927.88	-81.3959	59.6847	-0.348189	0.000816184	2.09737	2.05043	1	12	0.134146	6.95821e-05	1.20645e-05	0.000262526	7.76018e-05	0.000512867	0.000518705	81.3959	2.24133e-07
31.6296	329.835	2373.9	2396.71	-82.0899	61.1595	-0.348192	0.000836714	2.11965	2.0795	1	12	0.13413	5.59642e-05	1.22872e-05	-5.82835e-05	5.74203e-05	0.000413269	0.000417239	82.0899	9.99551e-08
25.1044	385.62	2959.25	2984.27	-82.5756	62.9709	-0.348181	0.000904541	2.14234	2.10657	1	13	0.134295	4.50009e-05	1.25861e-05	2.1919e-05	4.32996e-05	0.000332281	0.000335091	82.5756	1.31618e-07
19.9553	458.493	3679.7	3708.16	-82.8975	64.4182	-0.348188	0.000907774	2.16745	2.13431	1	13	0.134222	3.61965e-05	1.30292e-05	2.1919e-05	3.33439e-05	0.000267606	0.000269676	82.8975	1.58543e-07
17.7961	502.948	4101.37	4132.09	-83.0088	65.2625	-0.348184	0.000915652	2.18055	2.14824	1	13	0.134201	3.24777e-05	1.3258e-05	0.000102121	2.94566e-05	0.000240209	0.000242008	83.0088	2.28886e-07

File: DE_65_3_60.mpt
EC-Lab ASCII FILE
Nb header lines : 60

Potentio Electrochemical Impedance Spectroscopy

Run on channel : 3 (SN 20921)
User :
CE vs. WE compliance from -10 V to 10 V
Electrode connection : standard
Ewe ctrl range : min = -10.00 V, max = 10.00 V
Acquisition started on : 02/20/2020 14:52:34
Technique started on : 02/20/2020 14:52:35
Saved on :
	File : DE_65_3_60.mpr
	Directory : P:\Chemistry\Data\VMP3\Kyler\DOE\DE_65\60C\
	Host : 10.0.4.64
Device : VMP3 (SN 1432)
Address : USB
EC-Lab for windows v11.33 (software)
Internet server v11.32 (firmware)
Command interpretor v11.33 (firmware)
Electrode material :
Initial state :
Electrolyte :
Comments :
Electrode surface area : 0.001 cm²
Characteristic mass : 0.001 g
Equivalent Weight : 0.000 g/eq.
Density : 0.000 g/cm3
Record Analogic IN 1
Cycle Definition : Charge/Discharge alternance
Mode                Single sine
E (V)               0.0000
vs.                 Eoc
tE (h:m:s)          0:00:0.0000
record              0
dI                  1.000
unit dI             mA
dt (s)              0.000
fi                  1.000
unit fi             MHz
ff                  1.000
unit ff             Hz
Nd                  20
Points              per decade
spacing             Logarithmic
Va (mV)             128.0
pw                  0.50
Na                  3
corr                0
E range min (V)     -10.000
E range max (V)     10.000
I Range             Auto
Bandwidth           5
nc cycles           0
goto Ns'            0
nr cycles           0
inc. cycle          1

freq/Hz	Re(Z)/Ohm	-Im(Z)/Ohm	|Z|/Ohm	Phase(Z)/deg	time/s	<Ewe>/V	<I>/mA	Cs/µF	Cp/µF	cycle number	I Range	|Ewe|/V	|I|/A	(Q-Qo)/mA.h	Analog IN 1/V	Re(Y)/Ohm-1	Im(Y)/Ohm-1	|Y|/Ohm-1	Phase(Y)/deg	dq/mA.h
1.00002e+06	86.024	31.2409	91.5212	-19.9592	1.95148	-0.00302298	-0.000545801	0.00509434	0.000593598	1	11	0.00312598	3.41558e-05	-1.34474e-07	-0.000558489	0.0102701	0.00372976	0.0109264	19.9592	-1.34474e-07
707950	93.196	23.5198	96.118	-14.1639	3.73948	-0.00195395	-0.000430052	0.00955838	0.000572323	1	11	0.00859997	8.94731e-05	-2.75131e-07	-0.000157655	0.0100876	0.0025458	0.0104039	14.1639	-2.77463e-08
501206	99.6474	19.2531	101.49	-10.9355	5.52849	-0.00131036	-0.000312625	0.0164931	0.000593547	1	11	0.019001	0.00018722	-3.1537e-07	-7.74882e-05	0.00967423	0.00186918	0.00985315	10.9355	-8.12625e-09
354810	103.902	15.8099	105.097	-8.65189	7.31548	-0.00113311	-0.000386989	0.0283723	0.00064205	1	11	0.0349666	0.000332706	-1.04633e-06	-0.000157655	0.0094067	0.00143135	0.00951498	8.65189	-1.98731e-07
251188	106.648	12.7752	107.411	-6.8308	9.10148	-0.00113203	-0.000324172	0.0495968	0.000701606	1	11	0.0580344	0.000540303	-1.7158e-06	-0.000398155	0.00924396	0.00110732	0.00931005	6.8308	-6.81805e-07
177832	108.429	10.2228	108.91	-5.38595	10.8905	-0.00110767	-0.000362184	0.0875471	0.000771333	1	11	0.089423	0.00082107	-2.81767e-06	8.28454e-05	0.00914133	0.000861849	0.00918187	5.38595	5.64648e-07
125909	109.642	8.28772	109.955	-4.32271	12.5435	-0.00107311	-0.000270665	0.15252	0.000866503	1	11	0.128746	0.0011709	-4.89542e-06	-0.000478322	0.00906879	0.000685501	0.00909466	4.32271	-9.82924e-07
89129.3	110.501	6.88696	110.715	-3.56635	14.3305	-0.000943406	-0.00034261	0.259282	0.00100326	1	11	0.129599	0.00117057	-8.12885e-06	2.67859e-06	0.0090147	0.000561841	0.00903219	3.56635	-3.06054e-06
63093.8	111.107	5.96491	111.267	-3.07305	16.1185	-0.000870625	-0.000294896	0.422892	0.00121537	1	11	0.129484	0.00116372	-5.00476e-06	-7.74882e-05	0.00897449	0.000481808	0.00898742	3.07305	7.58786e-07
44666.7	111.541	5.51479	111.677	-2.83049	17.7685	-0.000819034	-0.000227981	0.646112	0.00157555	1	11	0.130332	0.00116704	-7.13143e-06	8.28454e-05	0.00894343	0.000442178	0.00895436	2.83049	4.49966e-07
31621.1	111.891	5.5494	112.029	-2.83934	19.2825	-0.000806285	-0.000218102	0.906977	0.00222552	1	11	0.138272	0.00123425	-4.79195e-06	0.000243179	0.00891533	0.000442169	0.00892629	2.83934	1.23802e-07
22389	112.201	6.08592	112.366	-3.10475	20.9345	-0.000770668	-0.000240283	1.16804	0.00342643	1	11	0.129336	0.00115103	-3.56641e-06	-0.000718822	0.00888644	0.000482011	0.0088995	3.10475	6.27118e-07
15847.7	112.525	7.18747	112.755	-3.65476	22.4505	-0.000754136	-0.000216799	1.39726	0.00567756	1	11	0.129347	0.00114716	-4.69762e-07	-0.000237822	0.00885078	0.000565337	0.00886881	3.65476	2.66138e-06
11217.7	112.897	8.96734	113.253	-4.54143	23.8275	-0.000749774	-0.00016871	1.58217	0.00991932	1	11	0.13629	0.00120341	-7.10683e-07	2.67859e-06	0.00880208	0.000699143	0.00882981	4.54143	-1.54329e-07
7944	113.335	11.6072	113.927	-5.84757	25.295	-0.00073943	-0.00010627	1.72605	0.0179164	1	11	0.140173	0.00123037	-2.02533e-07	-0.000157655	0.00873184	0.000894273	0.00877751	5.84757	2.42463e-07
5621.06	113.864	15.3921	114.9	-7.69855	27.3763	-0.000708715	-0.000103661	1.83952	0.0330112	1	11	0.130409	0.00113498	-1.63797e-06	-0.000317989	0.00862479	0.00116589	0.00870323	7.69855	-7.712e-07
3981.27	114.534	20.7015	116.39	-10.2453	29.6567	-0.000718276	-0.000150632	1.93106	0.0610899	1	11	0.131323	0.0011283	-2.03462e-06	-0.000317989	0.00845482	0.00152817	0.00859181	10.2453	7.24927e-07
2817.3	115.406	28.1013	118.778	-13.6852	31.9359	-0.000708305	-0.000105899	2.0103	0.112524	1	11	0.131723	0.00110899	-9.07143e-07	0.000403512	0.00818006	0.00199185	0.00841907	13.6852	2.76011e-07
1995.64	116.582	38.3402	122.725	-18.2044	34.2157	-0.000716823	-0.000181573	2.0801	0.203015	1	11	0.13186	0.00107443	2.22696e-07	-0.000237822	0.00774047	0.0025456	0.00814831	18.2044	2.13067e-07
1411.84	118.145	52.5424	129.302	-23.976	36.4952	-0.000708659	-9.78867e-05	2.14548	0.354271	1	11	0.131833	0.00101957	5.14392e-07	-0.000157655	0.00706653	0.00314268	0.00773383	23.976	-5.12536e-07
1000.32	120.221	72.0801	140.173	-30.9454	38.7727	-0.000708193	-0.000146533	2.20732	0.583668	1	11	0.131711	0.00093963	-7.08092e-07	-0.000398155	0.00611855	0.00366847	0.00713402	30.9454	-7.48526e-07
707.509	122.98	99.2967	158.063	-38.9181	41.0535	-0.000705602	-0.000142434	2.26544	0.894049	1	11	0.131534	0.00083216	-1.57484e-06	-0.000237822	0.00492237	0.00397442	0.00632658	38.9181	-8.25417e-07
501.444	126.713	136.843	186.5	-47.2011	43.3252	-0.000714903	-8.35391e-05	2.31939	1.24871	1	11	0.131347	0.00070427	-2.77849e-06	-0.000317989	0.00364303	0.00393427	0.00536192	47.2011	-4.04047e-07
354.66	132.101	189.472	230.977	-55.1154	45.6049	-0.000707019	-0.000118959	2.36845	1.59373	1	11	0.131186	0.00056796	-2.46764e-06	-0.000317989	0.00247612	0.00355146	0.00432944	55.1154	-1.67073e-07
251.044	140.229	262.636	297.728	-61.9009	48.1239	-0.000710392	-6.91728e-05	2.41388	1.87838	1	12	0.132653	0.000445552	-1.98227e-06	-0.000398155	0.00158197	0.00296288	0.00335877	61.9009	2.89613e-07
177.781	153.252	364.227	395.155	-67.1807	50.4162	-0.000722731	5.54575e-07	2.45789	2.0882	1	12	0.131867	0.00033371	-2.50821e-06	-0.000398155	0.000981454	0.00233258	0.00253065	67.1807	-3.43122e-07
125.846	174.815	505.125	534.52	-70.9102	52.6914	-0.000708752	-7.43992e-05	2.5037	2.2359	1	12	0.131414	0.000245854	-2.36884e-06	0.000163012	0.000611857	0.00176796	0.00187084	70.9102	1.70587e-07
89.116	211.293	699.183	730.412	-73.1852	54.9637	-0.000715331	-7.41751e-05	2.55431	2.34056	1	12	0.131162	0.000179573	-2.4972e-06	-7.74882e-05	0.000396048	0.00131055	0.00136909	73.1852	-1.78242e-07
63.0823	274.3	964.736	1002.97	-74.1281	57.2598	-0.000710374	-8.16157e-05	2.6152	2.41959	1	12	0.131028	0.00013064	-2.46571e-06	-0.000237822	0.000272676	0.000959024	0.000997035	74.1281	-6.67023e-08
44.6712	383.111	1323.19	1377.54	-73.8524	59.5252	-0.000708845	-6.18168e-05	2.69258	2.48432	1	12	0.13096	9.50676e-05	-2.56887e-06	-0.000317989	0.000201891	0.000697292	0.000725931	73.8524	-4.63947e-08
31.6296	573.623	1796.99	1886.32	-72.2962	61.7615	-0.000714977	-7.57631e-05	2.80016	2.54121	1	12	0.130923	6.94065e-05	-2.68827e-06	0.000243179	0.000161211	0.000505026	0.000530133	72.2962	-4.5235e-08
22.3854	900.6	2401.79	2565.09	-69.4454	64.0094	-0.000712387	-7.69944e-05	2.9602	2.59529	1	12	0.130904	5.10331e-05	-2.66148e-06	-7.74882e-05	0.000136876	0.000365032	0.000389851	69.4454	-1.46063e-07
15.8576	1444.02	3123.88	3441.48	-65.1911	66.5879	-0.000707038	-2.51252e-05	3.21284	2.6472	1	13	0.130981	3.80595e-05	-2.4461e-06	0.000243179	0.000121922	0.000263756	0.000290573	65.1911	4.02477e-09
11.2249	2296.47	3891.03	4518.17	-59.451	68.9649	-0.00070974	-2.88565e-05	3.64397	2.70258	1	13	0.130931	2.89788e-05	-2.59931e-06	8.28454e-05	0.000112496	0.000190607	0.000221328	59.451	-1.1963e-07
7.93953	3511.94	4554.71	5751.44	-52.3658	71.5087	-0.000702974	-2.59811e-05	4.40113	2.76015	1	13	0.13091	2.27612e-05	-2.38106e-06	-0.000718822	0.000106168	0.000137692	0.000173869	52.3658	2.28491e-07
5.6205	5031.53	4896.26	7020.66	-44.2194	73.3737	-0.000706758	-7.11343e-05	5.78336	2.8129	1	13	0.130894	1.86441e-05	-2.55729e-06	-7.74882e-05	0.000102081	9.93365e-05	0.000142437	44.2194	-1.35371e-07
3.97785	6594.32	4799.37	8155.91	-36.0473	75.9092	-0.000707345	-2.16904e-06	8.33658	2.88676	1	13	0.130888	1.60483e-05	-2.37593e-06	8.28454e-05	9.91344e-05	7.21504e-05	0.00012261	36.0473	2.10751e-07
2.81836	7985.91	4319.83	9079.42	-28.4103	79.4076	-0.000702194	-1.6537e-05	13.0724	2.9592	1	13	0.130888	1.44159e-05	-2.34584e-06	0.000323346	9.68744e-05	5.24024e-05	0.000110139	28.4103	3.69822e-07
1.99706	9048.1	3627.51	9748.18	-21.8465	84.2697	-0.000699009	-1.9478e-05	21.9695	3.04222	1	13	0.130886	1.34267e-05	-2.4278e-06	-0.000638656	9.52162e-05	3.81734e-05	0.000102583	21.8465	1.74287e-07
1.41224	9776.73	2884.99	10193.5	-16.4407	91.0762	-0.000697783	-1.93124e-05	39.0632	3.12903	1	13	0.130886	1.28401e-05	-3.00833e-06	0.000563846	9.40906e-05	2.7765e-05	9.81016e-05	16.4407	-7.50367e-07
1.00006	10248.1	2228.46	10487.6	-12.268	100.622	-0.000696031	-1.87651e-05	71.4146	3.22437	1	13	0.130887	1.24802e-05	-2.7045e-06	-0.000237822	9.31732e-05	2.02606e-05	9.53506e-05	12.268	1.28898e-07